accel_x,accel_y,accel_z,gyro_x,gyro_y,gyro_z,mag_x,mag_y,mag_z,bearing
-0.6024250145053387,0.05779234617449354,-0.15697739744175693,0.0,0.0,0.0,0.0,0.0,0.0,2.5145874058865196
-0.44863662114479164,-0.06970360998357425,-0.2681029865846433,0.0,0.0,0.0,0.0,0.0,0.0,0.45746108829863474
-0.37802884773848017,0.11465117898099825,0.04932463423849076,0.0,0.0,0.0,0.0,0.0,0.0,5.072150438493434
-0.2654598389704975,0.013409461592040484,-0.041794569493408505,0.0,0.0,0.0,0.0,0.0,0.0,4.172047146972952
-0.2873677919475397,-0.03273120089121974,0.06366711779417772,0.0,0.0,0.0,0.0,0.0,0.0,5.009599857973324
-0.4131636965838157,-0.12035939597717804,-0.09448522999787434,0.0,0.0,0.0,0.0,0.0,0.0,4.5555367491435
-0.3570537255847882,0.14042342938331284,0.05249463339671158,0.0,0.0,0.0,0.0,0.0,0.0,2.7539936167187453
-0.2205715946274897,-0.030008013196257517,-0.0029628639858781244,0.0,0.0,0.0,0.0,0.0,0.0,1.935010305485534
-0.28358935027169463,-0.030864671983304944,0.012450680669380793,0.0,0.0,0.0,0.0,0.0,0.0,2.9912231001265788
0.24280507304798402,-0.07263239904445527,-0.05092030135027131,0.0,0.0,0.0,0.0,0.0,0.0,1.9260650163924222
-0.03149190006486801,0.03640151071652133,-0.07903407670654133,0.0,0.0,0.0,0.0,0.0,0.0,3.737961702440509
-0.03470594985769796,0.1630215632568644,0.17099820848791275,0.0,0.0,0.0,0.0,0.0,0.0,1.484172844238942
-0.04394717555316245,0.022205690415310075,-0.10707616534177965,0.0,0.0,0.0,0.0,0.0,0.0,3.682802287224077
0.18661771561438287,0.08703106610899737,-0.02567397599573761,0.0,0.0,0.0,0.0,0.0,0.0,1.7911375283400697
0.07266698236899008,-0.07431180512644553,-0.023170821464310827,0.0,0.0,0.0,0.0,0.0,0.0,1.3186869658362
0.21856278689928785,-0.21027403542445455,-0.05847806546779345,0.0,0.0,0.0,0.0,0.0,0.0,5.034978068419302
0.21264702261671972,-0.029920451988960074,-0.03343944399739848,0.0,0.0,0.0,0.0,0.0,0.0,2.7754612328347577
0.402695553440536,-0.050219766110141444,0.0727297146734676,0.0,0.0,0.0,0.0,0.0,0.0,2.7204180264068962
0.28883902292836394,0.17720523424652757,-0.07078024411886953,0.0,0.0,0.0,0.0,0.0,0.0,1.2904657925698255
0.43137711792197864,-0.12643916125293642,0.07635864756782182,0.0,0.0,0.0,0.0,0.0,0.0,4.50844622405744
0.3919970942492961,-0.132862473271226,-0.0559301052146174,0.0,0.0,0.0,0.0,0.0,0.0,5.154220510324939
0.48788245041019573,-0.0581615647089332,-0.033017981605730766,0.0,0.0,0.0,0.0,0.0,0.0,4.576727983754764
0.4098995536831386,-0.2778825194733972,0.09499355223601924,0.0,0.0,0.0,0.0,0.0,0.0,0.5425186130717862
0.46948435194913873,-0.01475212256017376,-0.0400586876406367,0.0,0.0,0.0,0.0,0.0,0.0,2.937604156524223
0.5441214218632164,0.03389454366131849,0.09146135728697151,0.0,0.0,0.0,0.0,0.0,0.0,4.1976467409598275
0.41343564185714876,0.04182669500508985,-0.09260155181696408,0.0,0.0,0.0,0.0,0.0,0.0,5.128000984500963
0.6274514536447302,0.09109230088223956,-0.1679857182845913,0.0,0.0,0.0,0.0,0.0,0.0,5.032461035140885
0.49838991936692567,-0.010421823648932509,-0.043807346415132266,0.0,0.0,0.0,0.0,0.0,0.0,2.814053393147521
0.7531984647862542,0.034294292907928244,-0.0009939461173537347,0.0,0.0,0.0,0.0,0.0,0.0,3.018595482779893
0.7970089580406972,-0.016195583274621818,-0.019928018125836514,0.0,0.0,0.0,0.0,0.0,0.0,2.604172211408735
0.6146167971252116,0.042159674593709236,0.07528744622939366,0.0,0.0,0.0,0.0,0.0,0.0,2.2857489957933037
0.6752555348387298,-0.01356896967863667,0.07555695333295395,0.0,0.0,0.0,0.0,0.0,0.0,3.610559932418639
0.7550602489002392,0.04628239650424287,-0.045170413899903394,0.0,0.0,0.0,0.0,0.0,0.0,2.0336761279921367
0.8371672905625984,-0.06858435638791754,-0.19808999203399355,0.0,0.0,0.0,0.0,0.0,0.0,3.3396850635960114
1.0463750507754965,-0.112950133533952,0.06407030387773738,0.0,0.0,0.0,0.0,0.0,0.0,3.990631848043861
1.2189285516533752,0.04385295901299929,0.0641528594798771,0.0,0.0,0.0,0.0,0.0,0.0,3.9168527626601177
1.1428761754284102,0.06569458209864029,0.09086065177609759,0.0,0.0,0.0,0.0,0.0,0.0,1.4156052484026782
1.3213090637114564,0.08594030304980517,0.1837367001906891,0.0,0.0,0.0,0.0,0.0,0.0,5.2913438123789485
1.0813232112859987,-0.02111760324059281,0.004396472399653241,0.0,0.0,0.0,0.0,0.0,0.0,3.4730295486461324
1.141559137106144,-0.009781553327422518,-0.04003620872349799,0.0,0.0,0.0,0.0,0.0,0.0,3.5504568700198567
1.2763752561826176,0.10772887626785664,-0.08639045329723322,0.0,0.0,0.0,0.0,0.0,0.0,1.9436303857750783
1.3416967432749027,-0.06170548166000257,0.026064142371352572,0.0,0.0,0.0,0.0,0.0,0.0,4.2100276817000575
1.4266870743473887,-0.16620140136726197,0.09313854971066544,0.0,0.0,0.0,0.0,0.0,0.0,4.794524182601235
1.6909824556470312,-0.14802578692234689,0.16854438473797737,0.0,0.0,0.0,0.0,0.0,0.0,1.2881212029507714
1.3654721484631902,-0.17287592038163585,0.04092301414986679,0.0,0.0,0.0,0.0,0.0,0.0,4.613083471855376
1.4436088626766066,-0.05878945279253387,0.21438881432665413,0.0,0.0,0.0,0.0,0.0,0.0,0.8750380431568765
1.4158528507504018,-0.03933012213994095,-0.04342040045843934,0.0,0.0,0.0,0.0,0.0,0.0,2.4421499489050076
1.6286324400302812,0.04907490906176101,0.06354396584558593,0.0,0.0,0.0,0.0,0.0,0.0,3.3703348129180584
1.4478564192156866,0.07014715481655538,0.10506528224471992,0.0,0.0,0.0,0.0,0.0,0.0,3.0099594630768256
1.5300684694555522,-0.1646423874695525,-0.08565572458468422,0.0,0.0,0.0,0.0,0.0,0.0,2.4402703030956965
1.6882187879906838,0.06913723490468339,-0.013367018334035606,0.0,0.0,0.0,0.0,0.0,0.0,4.794051621289421
1.4874094018509934,0.18294660401334206,0.05650943754092197,0.0,0.0,0.0,0.0,0.0,0.0,1.7535835761806664
1.3535414402748007,-0.07653949697292281,-0.05815464574270027,0.0,0.0,0.0,0.0,0.0,0.0,2.2968606013081962
1.6654615715766021,0.03944982308837504,0.0011729584155915885,0.0,0.0,0.0,0.0,0.0,0.0,4.826512931686115
1.4165713988241568,0.0016424116552826926,0.0452087596549572,0.0,0.0,0.0,0.0,0.0,0.0,3.8165443663542886
1.35328644052844,0.08542282460455745,-0.08786643475730532,0.0,0.0,0.0,0.0,0.0,0.0,3.5706602271032484
1.7450564231367354,-0.04342130457110101,0.007897832804721297,0.0,0.0,0.0,0.0,0.0,0.0,0.33563859798497364
1.382798107982617,0.12869202083069806,-0.0009596665610833033,0.0,0.0,0.0,0.0,0.0,0.0,5.537408825967787
1.5331982372408695,0.19211086121878437,-0.13074228939784677,0.0,0.0,0.0,0.0,0.0,0.0,1.9365617249382305
1.5270815112743423,0.027594173009272988,-0.05273016324143385,0.0,0.0,0.0,0.0,0.0,0.0,2.8272421469888425
1.5806693579756552,-0.13659851570287407,0.16679164231433033,0.0,0.0,0.0,0.0,0.0,0.0,1.0478617563297483
1.4797806942915228,0.14468203971862073,0.02568430990269684,0.0,0.0,0.0,0.0,0.0,0.0,1.7466940475260608
1.514830453477915,-0.08702334303307288,-0.03752036475233087,0.0,0.0,0.0,0.0,0.0,0.0,3.4890289421812186
1.5279682035460418,-0.05540708708287251,0.026821099708359455,0.0,0.0,0.0,0.0,0.0,0.0,3.4077180250692978
1.3809305721637453,0.013829389034299375,0.11941763782932971,0.0,0.0,0.0,0.0,0.0,0.0,4.409311540794276
1.3803049836963308,-0.008385873969302888,-0.038988138686555325,0.0,0.0,0.0,0.0,0.0,0.0,5.176633957563451
1.3183924286141862,0.10685651963336562,0.034812008843860445,0.0,0.0,0.0,0.0,0.0,0.0,3.2045723466877405
1.6946411479474537,-0.12479047950918604,-0.16479510159779198,0.0,0.0,0.0,0.0,0.0,0.0,2.657372053396025
1.5146144219495923,0.11005023978681894,-0.052941021650120115,0.0,0.0,0.0,0.0,0.0,0.0,0.8273332046672769
1.2637755222039324,0.05005500456472217,0.053176467757292005,0.0,0.0,0.0,0.0,0.0,0.0,2.533962104621169
1.3848361896050068,-0.05420395703516101,0.17141152701463008,0.0,0.0,0.0,0.0,0.0,0.0,2.217000925625283
1.599754101969007,0.24071892763643926,0.06698683693424407,0.0,0.0,0.0,0.0,0.0,0.0,4.721216370536874
1.4891813671743759,0.13837542023727276,0.04547381055114579,0.0,0.0,0.0,0.0,0.0,0.0,0.9063871489027264
1.4860525083755305,0.01605355013895311,-0.011193060633782222,0.0,0.0,0.0,0.0,0.0,0.0,1.300003141755683
1.4419183409778504,-0.12376563686524403,-0.1402217772256906,0.0,0.0,0.0,0.0,0.0,0.0,4.183220732884953
1.4624972374450456,0.1751511991627813,0.1929588109926491,0.0,0.0,0.0,0.0,0.0,0.0,3.441100320516752
1.5576325664832498,0.011163164739787304,0.1223644501224892,0.0,0.0,0.0,0.0,0.0,0.0,4.781565130880271
1.4531692513620353,0.07747508449199249,-0.06042883171129916,0.0,0.0,0.0,0.0,0.0,0.0,3.2333855291824896
1.6084766342020693,0.16976382425535103,-0.06159084427458111,0.0,0.0,0.0,0.0,0.0,0.0,4.847531690876032
1.4119515771057323,0.02104489142420751,0.009970126658631189,0.0,0.0,0.0,0.0,0.0,0.0,3.50711608274353
1.4223639851082286,-0.054572395689287116,-0.1311834129365193,0.0,0.0,0.0,0.0,0.0,0.0,1.6358367730484054
1.4883028347530456,-0.1890094238832775,-0.0842460693454018,0.0,0.0,0.0,0.0,0.0,0.0,1.7145491666981236
1.5155523289697965,0.19934299623573493,-0.017188521316959356,0.0,0.0,0.0,0.0,0.0,0.0,2.8807811581767933
1.3721999766747648,0.0728423765220953,0.056751000487696206,0.0,0.0,0.0,0.0,0.0,0.0,3.9272108425078236
1.5371521581861827,0.26422699832330565,0.12713067963440514,0.0,0.0,0.0,0.0,0.0,0.0,3.1742751362358703
1.27861781449653,-0.033961105175821765,-0.16517975129054033,0.0,0.0,0.0,0.0,0.0,0.0,4.420390103857962
1.5992879490670886,0.018187427896820638,-0.03767640541157794,0.0,0.0,0.0,0.0,0.0,0.0,5.705635015807491
1.5432367781196976,-0.011263363885471231,-0.14363506491635428,0.0,0.0,0.0,0.0,0.0,0.0,3.4418726963882245
1.4624149439211758,0.017948602835202356,-0.1919807719971279,0.0,0.0,0.0,0.0,0.0,0.0,3.7604655029596175
1.5074021719390007,0.0071461724527466285,-0.0320927872348761,0.0,0.0,0.0,0.0,0.0,0.0,1.1907482420959976
1.4970199325556763,-0.013804707689422123,0.08804774837334492,0.0,0.0,0.0,0.0,0.0,0.0,2.1751955998759582
1.514710384820125,-0.048906733920273754,-0.08394771391529904,0.0,0.0,0.0,0.0,0.0,0.0,4.640445173541095
1.4479291016002622,0.07417067221291763,-0.05829468454313468,0.0,0.0,0.0,0.0,0.0,0.0,0.8405990445563815
1.6207522210261929,-0.12556443939278703,0.07567926676201961,0.0,0.0,0.0,0.0,0.0,0.0,3.1905698723074805
1.6835203026593972,0.03882586034664495,-0.058385533711986404,0.0,0.0,0.0,0.0,0.0,0.0,2.52550688151639
1.3728095310444282,-0.05890997961525144,-0.008474359472784986,0.0,0.0,0.0,0.0,0.0,0.0,1.119303203365295
1.3594664368739187,0.07919135376653562,0.11409614267154083,0.0,0.0,0.0,0.0,0.0,0.0,3.2930455890474604
1.5427950795776288,-0.004909111252083044,-0.033396407236146904,0.0,0.0,0.0,0.0,0.0,0.0,4.705889724346645
1.5013002714296584,0.1749938060968933,0.08767598212029988,0.0,0.0,0.0,0.0,0.0,0.0,1.4334753016920099
1.627439847967354,-0.00476128269598144,-0.037949550412177784,0.0,0.0,0.0,0.0,0.0,0.0,4.752488525313246
1.4051412728807355,0.05926398046841133,-0.02806853635257693,0.0,0.0,0.0,0.0,0.0,0.0,3.002068338297782
1.452968301860004,0.20239370846406501,-0.059155618470225095,0.0,0.0,0.0,0.0,0.0,0.0,3.9193368011092558
1.406872304691753,0.11841875188359437,-0.17564638812055033,0.0,0.0,0.0,0.0,0.0,0.0,2.1207485079583512
1.514930384738621,0.03772964269963424,0.006961311211243067,0.0,0.0,0.0,0.0,0.0,0.0,3.527632310638819
1.6097014834406578,0.009288483010518656,-0.07147325743170922,0.0,0.0,0.0,0.0,0.0,0.0,1.2471123104397865
1.3759684743276495,-0.07519314781060372,-0.0916654311115885,0.0,0.0,0.0,0.0,0.0,0.0,2.436854727166039
1.3983259893258149,0.06318371370959357,0.014530742677627346,0.0,0.0,0.0,0.0,0.0,0.0,4.846285501981166
1.4806653031920707,0.01777964660980359,-0.12117948522509554,0.0,0.0,0.0,0.0,0.0,0.0,3.4144207170120073
1.5946457227601174,-0.18837896792749154,-0.012358936641172866,0.0,0.0,0.0,0.0,0.0,0.0,4.655546111781687
1.6489097948110412,0.009393875888054723,0.06814021854987612,0.0,0.0,0.0,0.0,0.0,0.0,2.2810038864881315
1.4655837433686056,-0.09149379548977876,-0.03480133541989205,0.0,0.0,0.0,0.0,0.0,0.0,5.549078644898703
1.3902130764156868,-0.06821395559168943,-0.16530296018686008,0.0,0.0,0.0,0.0,0.0,0.0,2.0887621361614213
1.3509650616123066,0.12428353170724447,-0.052542730343113776,0.0,0.0,0.0,0.0,0.0,0.0,4.734700851776484
1.3887677119544317,-0.1605924430186888,0.054504081804783736,0.0,0.0,0.0,0.0,0.0,0.0,1.3506455410523646
1.5665904819383618,0.0427202679597284,0.21774230499258215,0.0,0.0,0.0,0.0,0.0,0.0,4.23975017045948
1.5184585809043574,0.10293791398308863,0.11025068498663698,0.0,0.0,0.0,0.0,0.0,0.0,2.748814838588247
1.4437252103918388,-0.023361919762094688,0.023632624776710652,0.0,0.0,0.0,0.0,0.0,0.0,3.686910656748974
1.5248883045290298,-0.22890015209144943,-0.010442006390002685,0.0,0.0,0.0,0.0,0.0,0.0,2.8249144666259833
1.4797256110523065,-0.007294406650890738,-0.02465982150490574,0.0,0.0,0.0,0.0,0.0,0.0,1.9303868948910472
1.312325780209367,-0.08691245430498268,-0.007434083426743943,0.0,0.0,0.0,0.0,0.0,0.0,3.362921448216054
1.3873395011262128,-0.12609267374059194,0.08684569697084658,0.0,0.0,0.0,0.0,0.0,0.0,4.136134620376007
1.6202522443800904,-0.16305145259427,0.11215399194959252,0.0,0.0,0.0,0.0,0.0,0.0,3.81037608657645
1.5334825533650254,0.08848740172642088,0.22900853662799137,0.0,0.0,0.0,0.0,0.0,0.0,2.1664939178456386
1.465018224555893,-0.12168999273024186,-0.04418386865035827,0.0,0.0,0.0,0.0,0.0,0.0,3.155250346146035
1.583746916447423,-0.033149317213829896,-0.02132429698366725,0.0,0.0,0.0,0.0,0.0,0.0,2.8600009566914113
1.2875068242359948,0.007479819418209068,0.11718066037665767,0.0,0.0,0.0,0.0,0.0,0.0,3.7173676131115325
1.3700701138933522,-0.04263009548252303,0.09286119152639062,0.0,0.0,0.0,0.0,0.0,0.0,0.7625037823448585
1.5014057531124856,0.10805875101072154,0.024280987170450963,0.0,0.0,0.0,0.0,0.0,0.0,1.264146357090662
1.5029851438335666,0.0822041205710373,-0.08487994043382496,0.0,0.0,0.0,0.0,0.0,0.0,3.474381712287775
1.3539432840775971,-0.0636819270601558,0.17409884253226135,0.0,0.0,0.0,0.0,0.0,0.0,5.9881207859624705
1.5043442529450062,0.045739994592021216,-0.004143188275651368,0.0,0.0,0.0,0.0,0.0,0.0,3.807649099750123
1.8045419534246336,-0.008712044894350486,0.03962625603432334,0.0,0.0,0.0,0.0,0.0,0.0,2.700836739769721
1.5251177945655179,0.02318198183145372,-0.04162800569120805,0.0,0.0,0.0,0.0,0.0,0.0,2.8503418951095796
1.5533712303867502,-0.10110535781210624,-0.0947433237214716,0.0,0.0,0.0,0.0,0.0,0.0,3.389298482178459
1.4749681655701512,0.1252096959827205,0.09340093479233444,0.0,0.0,0.0,0.0,0.0,0.0,5.167988998240828
1.418431115032283,0.02659437803934127,0.07990770616571102,0.0,0.0,0.0,0.0,0.0,0.0,3.229790200445472
1.381763428108474,0.028500306964359637,-0.03528579354352679,0.0,0.0,0.0,0.0,0.0,0.0,2.470603138306535
1.4645695030512094,-0.014407545296799863,0.11757824653949918,0.0,0.0,0.0,0.0,0.0,0.0,4.230603474186995
1.4929164457775705,-0.1173531758276685,-0.009125560887082064,0.0,0.0,0.0,0.0,0.0,0.0,4.4181519140800924
1.309585593257024,0.015851320088428617,0.060214704602290205,0.0,0.0,0.0,0.0,0.0,0.0,5.200857146087279
1.5673270957666086,-0.01484103566285859,-0.10916882995522757,0.0,0.0,0.0,0.0,0.0,0.0,4.674585636284331
1.2959354923867954,-0.05637358538188533,-0.045723897043127994,0.0,0.0,0.0,0.0,0.0,0.0,1.1311181002993091
1.3293692655782465,0.22966717835887024,0.06253962914980768,0.0,0.0,0.0,0.0,0.0,0.0,2.4423089986663706
1.4807385369940937,-0.06034956196868251,-0.08235513910884115,0.0,0.0,0.0,0.0,0.0,0.0,4.184928869335912
1.507291284545802,0.020004418197894593,-0.04979072629316661,0.0,0.0,0.0,0.0,0.0,0.0,3.540723563317736
1.5612546364093067,-0.20664609519331437,0.009859484844908104,0.0,0.0,0.0,0.0,0.0,0.0,0.1812608686709287
1.3851209347093856,0.061463866598018224,-0.13205796466172887,0.0,0.0,0.0,0.0,0.0,0.0,2.8036666670895936
1.4223324690017014,-0.030665138265804283,-0.0404018570204972,0.0,0.0,0.0,0.0,0.0,0.0,3.7909055427409455
1.5498849556906764,-0.09051379932163958,-0.135889831594173,0.0,0.0,0.0,0.0,0.0,0.0,3.61406302059009
1.3411962111427709,-0.0013652061296803941,0.005192700785216137,0.0,0.0,0.0,0.0,0.0,0.0,1.460717762881194
1.54112131039871,-0.06522383622264208,-0.019315108348639795,0.0,0.0,0.0,0.0,0.0,0.0,4.232178700869085
1.5097290042075324,0.11902765101483877,-0.11607339829898933,0.0,0.0,0.0,0.0,0.0,0.0,5.054581413043608
1.482752059778227,0.08435117043018277,-0.21199624524003122,0.0,0.0,0.0,0.0,0.0,0.0,2.6417681721426023
1.5278212760299867,0.14857582460196925,0.04336806236075465,0.0,0.0,0.0,0.0,0.0,0.0,2.5795706543914294
1.2734128139689458,0.11869063242070513,0.010065534223410017,0.0,0.0,0.0,0.0,0.0,0.0,3.347148190551461
1.6738723205059716,0.1401261790675886,0.09039557787022334,0.0,0.0,0.0,0.0,0.0,0.0,3.6964570530532495
1.4205669688486577,-0.10585569302403519,0.04844283002133354,0.0,0.0,0.0,0.0,0.0,0.0,2.449980153865891
1.4441043058287049,0.01256839631752395,0.18642075642934963,0.0,0.0,0.0,0.0,0.0,0.0,5.234249238072701
1.4604242548065007,-0.08565258204372742,-0.07335196114194674,0.0,0.0,0.0,0.0,0.0,0.0,3.1419095279327123
1.494638516636449,-0.10841191409005864,0.0821684639665801,0.0,0.0,0.0,0.0,0.0,0.0,3.7838856434541936
1.340099044652284,-0.019371167171343,0.257192658188342,0.0,0.0,0.0,0.0,0.0,0.0,3.83971740191599
1.6421175086338309,0.12900629788518667,-0.26581363336027314,0.0,0.0,0.0,0.0,0.0,0.0,3.0424127983120104
1.5620286705616109,-0.06457752612350913,-0.026408376184641192,0.0,0.0,0.0,0.0,0.0,0.0,4.384533169108274
1.5009817317434524,0.2079140603627644,0.23216492769746633,0.0,0.0,0.0,0.0,0.0,0.0,4.722219410313469
1.5414910310679513,0.1464762956241161,0.23025634841974438,0.0,0.0,0.0,0.0,0.0,0.0,2.6942385941356966
1.5502402897281906,0.04323524263255615,-0.057864544947053335,0.0,0.0,0.0,0.0,0.0,0.0,2.9317951315705173
1.45966825226068,-0.05095494112547804,0.11921479145934877,0.0,0.0,0.0,0.0,0.0,0.0,3.25898384380348
1.5334408074921158,-0.0918607803299969,0.06074534082893978,0.0,0.0,0.0,0.0,0.0,0.0,4.346843662609673
1.4559565515199797,-0.2616228530488351,0.19636461265632707,0.0,0.0,0.0,0.0,0.0,0.0,3.818373517121353
1.465660410987467,0.10280761732193983,0.08043395244862693,0.0,0.0,0.0,0.0,0.0,0.0,2.530402996232897
1.3598154227731896,-0.05141790920989915,0.006756573552580171,0.0,0.0,0.0,0.0,0.0,0.0,0.46944399782728674
1.5634390668607798,-0.05360374296406221,-0.001373933100856318,0.0,0.0,0.0,0.0,0.0,0.0,4.6693186813622125
1.5427002587306924,0.050671061087367346,-0.09316810780380771,0.0,0.0,0.0,0.0,0.0,0.0,1.326317459741037
1.514339483845428,0.07336504314311003,-0.09917346953914202,0.0,0.0,0.0,0.0,0.0,0.0,4.64949683124172
1.3849610492923126,0.15272925075240362,-0.16765985894960725,0.0,0.0,0.0,0.0,0.0,0.0,2.281735666769246
1.3675483452152428,-0.009152383039213589,-0.06915813262385717,0.0,0.0,0.0,0.0,0.0,0.0,4.628125839931671
1.6545543930616526,0.08637359541783446,0.09988098134362551,0.0,0.0,0.0,0.0,0.0,0.0,1.3238661406776644
1.3888333392702803,-0.06375839688187605,0.09913563200727525,0.0,0.0,0.0,0.0,0.0,0.0,5.316729633248912
1.4355131383936355,0.1762349774135009,0.1203738568881268,0.0,0.0,0.0,0.0,0.0,0.0,2.9075333314983096
1.525676667614018,-0.10119459566493394,0.027648768084419736,0.0,0.0,0.0,0.0,0.0,0.0,4.187500986274006
1.478271897632759,-0.027454899978118015,0.12539009182935226,0.0,0.0,0.0,0.0,0.0,0.0,4.264188787590729
1.3104299106173187,0.06291563727284266,-0.130324941864948,0.0,0.0,0.0,0.0,0.0,0.0,4.814289370279865
1.442683703550828,-0.05646024205509226,0.03996350140582902,0.0,0.0,0.0,0.0,0.0,0.0,3.5292424766630948
1.4186616805932115,-0.01759059372261463,0.0365291981498441,0.0,0.0,0.0,0.0,0.0,0.0,0.4621251782634399
1.2163451969852541,0.016018082516717987,-0.03155654918566322,0.0,0.0,0.0,0.0,0.0,0.0,4.670415360545408
1.5220711610218727,0.0777219859312111,-0.24494214118759003,0.0,0.0,0.0,0.0,0.0,0.0,2.7736478752769096
1.3821774897585708,0.11589245656703723,0.02864400510249412,0.0,0.0,0.0,0.0,0.0,0.0,1.1223008502147522
1.517055482553152,0.10368984165593427,0.07233948278399066,0.0,0.0,0.0,0.0,0.0,0.0,3.916288240019746
1.4292975298437507,0.054825311992688176,0.03511121359393803,0.0,0.0,0.0,0.0,0.0,0.0,3.7106680524224736
1.5424890423710227,0.005294827941851758,0.14202001449152743,0.0,0.0,0.0,0.0,0.0,0.0,0.8209776396373678
1.4625478476527818,0.02525529135008328,-0.02546190471008572,0.0,0.0,0.0,0.0,0.0,0.0,1.0779127321518647
1.4536756748407644,-0.02295538555170471,-0.006568008411331207,0.0,0.0,0.0,0.0,0.0,0.0,3.31443337591916
1.4352970024145002,-0.07767617400158355,0.034086290319994966,0.0,0.0,0.0,0.0,0.0,0.0,4.583888229915404
1.5526182581082388,0.11568536737161482,0.15347063259624127,0.0,0.0,0.0,0.0,0.0,0.0,2.5541769086867623
1.7783230376892678,0.2488585940347098,-0.16810532327381011,0.0,0.0,0.0,0.0,0.0,0.0,1.6404652147716883
1.427941502346409,-0.0066647920551948575,0.13379096186069736,0.0,0.0,0.0,0.0,0.0,0.0,2.2659357566984277
1.6548442309460762,-0.0003607505607947631,-0.16019763851750116,0.0,0.0,0.0,0.0,0.0,0.0,3.4267549370533756
1.3940752828987601,0.027283918253610692,-0.18845430610263764,0.0,0.0,0.0,0.0,0.0,0.0,3.974353759765826
1.549768716486086,0.02232211719302458,0.15254886095594622,0.0,0.0,0.0,0.0,0.0,0.0,3.558274510774372
1.6214374885747471,0.10175318378308092,-0.06608835861940067,0.0,0.0,0.0,0.0,0.0,0.0,2.2915345842477057
1.461835568202861,0.15076134470691022,-0.2674838577371805,0.0,0.0,0.0,0.0,0.0,0.0,5.308759588146279
1.3894231745445478,0.07985495339451547,0.05025091698682649,0.0,0.0,0.0,0.0,0.0,0.0,4.0538282447681135
1.3704188251935066,0.09853277359760268,0.06792108880945245,0.0,0.0,0.0,0.0,0.0,0.0,4.480765306631868
1.5819556765504859,-0.10444894119007503,-0.009370854511428724,0.0,0.0,0.0,0.0,0.0,0.0,4.754229420040741
1.404842026838162,-0.013364133388410077,0.19860983602432591,0.0,0.0,0.0,0.0,0.0,0.0,2.878270433860442
1.5119390592058546,-0.15079908544806148,0.14453997107945185,0.0,0.0,0.0,0.0,0.0,0.0,1.5106247376040118
1.3897686516556869,0.13744742163352056,0.08447972381809149,0.0,0.0,0.0,0.0,0.0,0.0,0.08309962649857268
1.5885286462977861,-0.032705020832830604,0.008824040250054711,0.0,0.0,0.0,0.0,0.0,0.0,3.524400228869158
1.3632045508675752,0.07587421921860732,0.05062262967962175,0.0,0.0,0.0,0.0,0.0,0.0,2.5769450419785214
1.3786500692250723,0.12358734398063426,-0.04084700161433123,0.0,0.0,0.0,0.0,0.0,0.0,1.123361183720542
1.5212933645100952,-0.10547862974180969,0.06102262257336946,0.0,0.0,0.0,0.0,0.0,0.0,4.745216038626741
1.3328381104196974,0.07040869744133056,-0.17529896284760826,0.0,0.0,0.0,0.0,0.0,0.0,3.236806258524251
1.2916077448630052,0.010508259565490839,-0.1359289058053476,0.0,0.0,0.0,0.0,0.0,0.0,3.631166467224036
1.5458013898110836,-0.01588673635994939,0.05203623607920635,0.0,0.0,0.0,0.0,0.0,0.0,0.5897105891133035
1.4251756771581918,-0.27131937014703494,0.013923400419706054,0.0,0.0,0.0,0.0,0.0,0.0,1.0887625945742119
1.5442992475711512,-0.03829455972955323,-0.20794423388593786,0.0,0.0,0.0,0.0,0.0,0.0,4.5411121172589155
1.5474600827851968,0.22719193408912264,0.08653278407890802,0.0,0.0,0.0,0.0,0.0,0.0,1.4312227114366374
1.430571038519998,0.07871281866162252,0.04078779951850392,0.0,0.0,0.0,0.0,0.0,0.0,4.14561763125304
1.5191759957810922,0.07944215886547562,-0.06763621341790853,0.0,0.0,0.0,0.0,0.0,0.0,3.381528825409887
1.4373665454458968,0.10979166507645029,-0.09249876190345152,0.0,0.0,0.0,0.0,0.0,0.0,4.843894655441448
1.5955889510529389,-0.05998568638515583,0.15682682182351868,0.0,0.0,0.0,0.0,0.0,0.0,3.943264280206089
1.4782519977946134,0.11888783961054881,0.23787622214729673,0.0,0.0,0.0,0.0,0.0,0.0,2.5476860443202933
1.4953959678777728,-0.11868979446112715,-0.022902211979243532,0.0,0.0,0.0,0.0,0.0,0.0,2.415493704864678
1.476397581275384,-0.08743277214583561,0.09264344733676871,0.0,0.0,0.0,0.0,0.0,0.0,4.614278902415616
1.4942303308972482,-0.18281645222851609,0.017082823039000484,0.0,0.0,0.0,0.0,0.0,0.0,0.495014077373807
1.5082510281268626,-0.15220090479852583,-0.028961043734438446,0.0,0.0,0.0,0.0,0.0,0.0,5.690849213293244
1.4859218665164187,0.0813893862563691,0.04199573877104457,0.0,0.0,0.0,0.0,0.0,0.0,3.5568959407709855
1.3168556018049333,0.031990189881827356,0.04751350712484425,0.0,0.0,0.0,0.0,0.0,0.0,2.3079307661017623
1.6001125199923412,-0.09296485892454415,0.030652513570706363,0.0,0.0,0.0,0.0,0.0,0.0,5.472735557782634
1.4574716499415503,-0.11775395005655256,-0.011934879369863816,0.0,0.0,0.0,0.0,0.0,0.0,6.110118759148458
1.2457648047953955,0.022319796158246443,0.028208726019300356,0.0,0.0,0.0,0.0,0.0,0.0,4.134087699283377
1.4636499266026564,0.12869322169272035,0.07031064469628866,0.0,0.0,0.0,0.0,0.0,0.0,4.834441095405801
1.666370242840589,-0.04458220070019117,0.07434292262681556,0.0,0.0,0.0,0.0,0.0,0.0,1.107859689940428
1.4366521424275092,-0.08082381732653897,-0.003172699930878132,0.0,0.0,0.0,0.0,0.0,0.0,2.076174621420466
1.5996745873069464,-0.2625552399702269,0.0778668974909005,0.0,0.0,0.0,0.0,0.0,0.0,4.114346609612258
1.5608768631823418,0.06714126004883982,-0.10169268805152794,0.0,0.0,0.0,0.0,0.0,0.0,4.318035646824836
1.3514347433423985,-0.06170886030280198,-0.11160650789654941,0.0,0.0,0.0,0.0,0.0,0.0,3.0988528048519335
1.5727081378478291,-0.0010506563151197897,0.011288430037803053,0.0,0.0,0.0,0.0,0.0,0.0,3.6014431576771773
1.690355251741303,0.0144403541338073,0.04528009486950894,0.0,0.0,0.0,0.0,0.0,0.0,1.3679470227012287
1.574626540485338,-0.03318340321768105,-0.05213374966223281,0.0,0.0,0.0,0.0,0.0,0.0,3.974857105305805
1.7167533541703857,-0.039920189009115946,-0.1096354092598809,0.0,0.0,0.0,0.0,0.0,0.0,3.1507581923708234
1.5865591419452378,-0.008995280960889758,0.010171855288674203,0.0,0.0,0.0,0.0,0.0,0.0,3.713271397410098
1.5382388512319378,-0.06371859242661708,0.09218207080668968,0.0,0.0,0.0,0.0,0.0,0.0,0.7226425647976429
1.660828261130609,-0.1778827727405231,-0.07701621306405515,0.0,0.0,0.0,0.0,0.0,0.0,3.2170183126141305
1.299993533296158,-0.07597991710775914,0.12561082076988495,0.0,0.0,0.0,0.0,0.0,0.0,5.249784372247889
1.444326685358175,0.030797184953526957,0.008228945270412687,0.0,0.0,0.0,0.0,0.0,0.0,5.071372140885408
1.1762895929306354,-0.037790819079612875,0.04640046370136764,0.0,0.0,0.0,0.0,0.0,0.0,4.610811674727715
1.4171325025186157,-0.05251511899238113,0.15608195061918517,0.0,0.0,0.0,0.0,0.0,0.0,2.900764704230412
1.5981462965247444,0.0055337518836177674,0.03648323921945345,0.0,0.0,0.0,0.0,0.0,0.0,3.3771941128575245
1.5465913238758873,0.0763013227145228,-0.11999849292706571,0.0,0.0,0.0,0.0,0.0,0.0,4.184159147967142
1.5866312372951112,0.0055770423882653235,0.06412883490116089,0.0,0.0,0.0,0.0,0.0,0.0,3.9032747924810063
1.3670643319530646,-0.05489192235488462,0.006466235475606489,0.0,0.0,0.0,0.0,0.0,0.0,1.4104967926710974
1.4878936903237376,-0.0170472454937917,0.06712371685734002,0.0,0.0,0.0,0.0,0.0,0.0,5.299269769035953
1.4490459828408775,-0.01560668040950318,-0.030280567894527502,0.0,0.0,0.0,0.0,0.0,0.0,2.9400273641902466
1.4104356913938925,-0.009761824050062576,-0.058243710734379665,0.0,0.0,0.0,0.0,0.0,0.0,2.2239536570009197
1.4301604112622597,0.05927097674399491,0.17179884081264474,0.0,0.0,0.0,0.0,0.0,0.0,3.607607175010848
1.5940659831702653,0.07978191400462974,-0.02382414484052897,0.0,0.0,0.0,0.0,0.0,0.0,1.7221839639256156
1.3787554479077209,-0.058579311035071725,-0.1319062388689772,0.0,0.0,0.0,0.0,0.0,0.0,2.0067722235857506
1.4357754650993024,-0.053488930739556795,0.11446427603355958,0.0,0.0,0.0,0.0,0.0,0.0,1.749498412468058
1.491505969007678,-0.019130507414983143,-0.09449749422747862,0.0,0.0,0.0,0.0,0.0,0.0,1.8976310623589672
1.39100838909562,-0.0059346397579742236,0.0704386423446518,0.0,0.0,0.0,0.0,0.0,0.0,1.8665216762853605
1.4021444178597522,-0.056493058206954085,0.09542963372256141,0.0,0.0,0.0,0.0,0.0,0.0,1.4555088647519399
1.527841658897825,-0.12101286224710123,0.008615413048935316,0.0,0.0,0.0,0.0,0.0,0.0,3.489681652660428
1.518283373100921,-0.1520181930576993,-0.07690487556643086,0.0,0.0,0.0,0.0,0.0,0.0,5.948532432685737
1.5021116566159052,-0.06712026435546435,-0.1261097555459619,0.0,0.0,0.0,0.0,0.0,0.0,3.7421376622748634
1.449638310298955,-0.021390671973020053,-0.10791281904439697,0.0,0.0,0.0,0.0,0.0,0.0,1.4436930523380047
1.3009538621704844,-0.07541659793592453,-0.05047173633154994,0.0,0.0,0.0,0.0,0.0,0.0,3.988333609394466
1.5714734117221678,0.01910120241514192,-0.08773148510278923,0.0,0.0,0.0,0.0,0.0,0.0,3.3296837332332427
1.369034415136385,0.07179195379503571,0.08829134563365304,0.0,0.0,0.0,0.0,0.0,0.0,3.6192534308904007
1.3825806133662517,0.1438944806841163,0.11528185072698503,0.0,0.0,0.0,0.0,0.0,0.0,2.7407509972695445
1.2994222155337378,0.025927861202122506,-0.0017490132235034846,0.0,0.0,0.0,0.0,0.0,0.0,3.4746009207983164
1.4609796713795045,0.14450109074431736,0.04440597170356111,0.0,0.0,0.0,0.0,0.0,0.0,5.440037158097623
1.5385861411635935,-0.013133270904721744,-0.07966071841784866,0.0,0.0,0.0,0.0,0.0,0.0,4.850575291278418
1.4715766841016673,-0.048572424332770585,0.051543734726822055,0.0,0.0,0.0,0.0,0.0,0.0,1.8172184164715512
1.4057937058781462,-0.10624131016797267,0.05742839468577431,0.0,0.0,0.0,0.0,0.0,0.0,1.6657075950824103
1.3252771330521764,0.18500777265735036,0.04181630254908661,0.0,0.0,0.0,0.0,0.0,0.0,2.5887046540580076
1.3811462878627787,-0.07665676003611055,-0.07717945716922957,0.0,0.0,0.0,0.0,0.0,0.0,1.4248668652574614
1.5475847061255112,-0.015948967924364673,0.18467163635495148,0.0,0.0,0.0,0.0,0.0,0.0,5.057972918595723
1.544673896896037,0.049213286948147354,0.10298754590881623,0.0,0.0,0.0,0.0,0.0,0.0,2.8275639004496433
1.4719008754616358,0.0007864866556207381,-0.0807996295630123,0.0,0.0,0.0,0.0,0.0,0.0,3.142744609743979
1.3175718154010494,0.12311859929355524,-0.16024728806693583,0.0,0.0,0.0,0.0,0.0,0.0,2.9472747750543484
1.4856450730227573,0.023780188689057232,0.03330909459811461,0.0,0.0,0.0,0.0,0.0,0.0,2.476487305788974
1.5209230665344018,-0.12292191794919699,-0.07182454179831653,0.0,0.0,0.0,0.0,0.0,0.0,5.591464331946347
1.4685155673156383,0.09267572508973887,-0.03355054610928823,0.0,0.0,0.0,0.0,0.0,0.0,1.6736584730549293
1.7461627731185598,0.14357683467192592,0.12647033231034366,0.0,0.0,0.0,0.0,0.0,0.0,2.884140614840577
1.4506364640811527,-0.06646124930828208,0.15620929472658474,0.0,0.0,0.0,0.0,0.0,0.0,2.854023116299418
1.407908794819994,-0.05237652543952429,-0.007403299386302225,0.0,0.0,0.0,0.0,0.0,0.0,2.0214042007024893
1.471911815427171,0.09674459778449901,-0.15044502954635292,0.0,0.0,0.0,0.0,0.0,0.0,1.9953298984477954
1.4881904569963291,-0.04237773537083953,0.033980888624745825,0.0,0.0,0.0,0.0,0.0,0.0,3.986442588250411
1.6532533393843096,-0.0058479457671147175,-0.08313124403344735,0.0,0.0,0.0,0.0,0.0,0.0,4.358185103306674
1.494326205923489,-0.24243016818830096,-0.15407151163000685,0.0,0.0,0.0,0.0,0.0,0.0,5.751985413104952
1.4732181425788753,0.033400622279130335,0.21153644209196343,0.0,0.0,0.0,0.0,0.0,0.0,1.0387245979025728
1.5447823273987806,-0.05753942984814753,0.056675667018514155,0.0,0.0,0.0,0.0,0.0,0.0,2.671101888401468
1.4492661898826888,-0.08414282273778513,0.06732114909217748,0.0,0.0,0.0,0.0,0.0,0.0,3.56251748856437
1.696115930384026,-0.2057151828078343,0.12774864518826753,0.0,0.0,0.0,0.0,0.0,0.0,0.6294745572766078
1.4869873409571104,-0.19398575963940898,-0.03615456290203549,0.0,0.0,0.0,0.0,0.0,0.0,2.6546212543714556
1.4274768450098858,-0.14396458809444038,0.0064117000057386355,0.0,0.0,0.0,0.0,0.0,0.0,3.446342197797504
1.3525505883009137,0.020648389438744856,-0.05111173816703595,0.0,0.0,0.0,0.0,0.0,0.0,4.894601579854959
1.4939713023581376,0.03412452149401035,0.21987971108645785,0.0,0.0,0.0,0.0,0.0,0.0,2.0299163048648503
1.3647953975283418,0.020982399438192703,-0.051231241172177304,0.0,0.0,0.0,0.0,0.0,0.0,2.968835356831807
1.418404331639723,0.026033069834477635,0.07484802045239684,0.0,0.0,0.0,0.0,0.0,0.0,3.2806794673912214
1.5352055585581517,0.04999577242597607,0.055391660505050205,0.0,0.0,0.0,0.0,0.0,0.0,5.422883550616098
1.578812960060536,0.03771242384318389,0.04209444906104279,0.0,0.0,0.0,0.0,0.0,0.0,5.186136782053835
1.3863845377824127,-0.02207638874732755,0.024831108491201265,0.0,0.0,0.0,0.0,0.0,0.0,5.062364216674174
1.4006563779654688,-0.16648958221173302,-0.033571798165231,0.0,0.0,0.0,0.0,0.0,0.0,4.343764708950849
1.60389770357645,-0.1578779285362332,-0.010891327107179723,0.0,0.0,0.0,0.0,0.0,0.0,3.858679317666192
1.6845462322434317,-0.120090923475903,0.07529320756737433,0.0,0.0,0.0,0.0,0.0,0.0,1.3584251479329725
1.6001009353162048,0.14344387151984103,-0.06259593257727177,0.0,0.0,0.0,0.0,0.0,0.0,5.397744724615042
1.5886660443519796,-0.1019563358439988,0.04054801381868062,0.0,0.0,0.0,0.0,0.0,0.0,3.8408690877398053
1.5651193171915563,-0.0011559666254858018,-0.08537918195952032,0.0,0.0,0.0,0.0,0.0,0.0,1.6311718673070748
1.5276900517581034,0.0592181533647913,0.05893496516684091,0.0,0.0,0.0,0.0,0.0,0.0,2.041514629523321
1.4580100380253642,0.004192361865867486,0.026704629276881955,0.0,0.0,0.0,0.0,0.0,0.0,3.503654927199852
1.6033470996186876,0.053584388318379333,-0.019706960832276275,0.0,0.0,0.0,0.0,0.0,0.0,2.210966463144629
1.4960281293016924,0.03173839216106713,0.009594948246101895,0.0,0.0,0.0,0.0,0.0,0.0,2.991468184822098
1.4037849190869978,-0.12758614273593488,0.008495498857910408,0.0,0.0,0.0,0.0,0.0,0.0,3.7815179146753253
1.543388206502461,0.012675316045299279,-0.10991147299988131,0.0,0.0,0.0,0.0,0.0,0.0,3.1215419951425676
1.5127505742112408,-0.20427631964057713,-0.08981953232965251,0.0,0.0,0.0,0.0,0.0,0.0,2.6230646362335928
1.5865304047322708,-0.027079702232623234,-0.11576651482701095,0.0,0.0,0.0,0.0,0.0,0.0,2.9298489942465182
1.556431725475439,-0.03679426848627359,-0.25458950054595386,0.0,0.0,0.0,0.0,0.0,0.0,1.5080549618506542
1.3536329298327763,-0.03934818998222363,0.05176023029601127,0.0,0.0,0.0,0.0,0.0,0.0,1.1661655705686225
1.380241783957836,0.08875502539303028,-0.014731704487058584,0.0,0.0,0.0,0.0,0.0,0.0,3.849703336472191
1.4270044398840285,-0.024082313326157113,-0.09200674442392498,0.0,0.0,0.0,0.0,0.0,0.0,2.734993147746782
1.5153372297304617,-0.020220233865288095,0.15292818208175327,0.0,0.0,0.0,0.0,0.0,0.0,3.750583088964117
1.6237200834583936,-0.03717414289434895,0.03521238919892331,0.0,0.0,0.0,0.0,0.0,0.0,1.5194544478158654
1.4221213448016474,0.16185848075070985,-0.013921002526465349,0.0,0.0,0.0,0.0,0.0,0.0,1.3609534182941845
1.339324065814643,-0.09817653154395636,-0.03196608524933098,0.0,0.0,0.0,0.0,0.0,0.0,5.46101709401608
1.6231986425793008,-0.005157631348526325,0.1915069007709921,0.0,0.0,0.0,0.0,0.0,0.0,5.779976115816404
1.5752867581663543,-0.24710582321546384,0.0959467649305586,0.0,0.0,0.0,0.0,0.0,0.0,3.4873967408182702
1.5717570264168375,-0.06662806115714963,0.1185425536402637,0.0,0.0,0.0,0.0,0.0,0.0,4.205586413641517
1.3121035390542382,-0.15295352509847812,0.02701928867666688,0.0,0.0,0.0,0.0,0.0,0.0,4.940297422147685
1.4160357292235768,0.02286617191676245,0.11923026098694825,0.0,0.0,0.0,0.0,0.0,0.0,3.817262681868507
1.7289775864472716,0.1546149112948647,-0.06294483381764554,0.0,0.0,0.0,0.0,0.0,0.0,3.284039003499372
1.525790741640974,-0.028576622029048118,-0.08424081744999984,0.0,0.0,0.0,0.0,0.0,0.0,4.287638345834141
1.4870232028676678,0.03672080383640358,0.03896120045366276,0.0,0.0,0.0,0.0,0.0,0.0,4.408026304072374
1.3786244956110034,-0.08132066941309601,-0.04129260656736624,0.0,0.0,0.0,0.0,0.0,0.0,3.407572721949756
1.5037981855248128,-0.029782425555249972,-0.0757789420172095,0.0,0.0,0.0,0.0,0.0,0.0,5.952207261048825
1.5194119382222604,-0.03745145183604021,-0.019318605735780252,0.0,0.0,0.0,0.0,0.0,0.0,3.00351871807312
1.623420599923896,0.032239221611039974,-0.16108816174084295,0.0,0.0,0.0,0.0,0.0,0.0,2.2406002661074904
1.5972314491597337,0.16616675495769764,-0.03906423080523164,0.0,0.0,0.0,0.0,0.0,0.0,5.24400905157236
1.6699271399936488,0.20918507647950668,-0.007358732989669831,0.0,0.0,0.0,0.0,0.0,0.0,4.470000714298585
1.5832952551511283,-0.035846582468158604,-0.01963112567759269,0.0,0.0,0.0,0.0,0.0,0.0,5.115461262226815
1.6530012919707773,-0.12480572737873163,0.14649440837074276,0.0,0.0,0.0,0.0,0.0,0.0,2.1207937820681617
1.5163012394967668,-0.01655884844678549,-0.19226102743131165,0.0,0.0,0.0,0.0,0.0,0.0,4.292890234268636
1.396991030554391,0.03022083745730608,0.09992921564328128,0.0,0.0,0.0,0.0,0.0,0.0,2.6716939892454206
1.3878960610702016,-0.05773585147604299,-0.11948477460071856,0.0,0.0,0.0,0.0,0.0,0.0,2.6953502285163813
1.581574087574646,0.22641354229706528,0.06605205877632535,0.0,0.0,0.0,0.0,0.0,0.0,1.087854953256108
1.4374607979313574,-0.18767299413811364,-0.13060762740046392,0.0,0.0,0.0,0.0,0.0,0.0,1.886168031228512
1.4306548481000054,0.008278404837969992,-0.15257500262487445,0.0,0.0,0.0,0.0,0.0,0.0,3.599463371257017
1.3611509833976583,-0.11789739436086477,0.029043574763798957,0.0,0.0,0.0,0.0,0.0,0.0,0.5550650184053787
1.5083716630469133,-0.02877120918326258,-0.1321400261001567,0.0,0.0,0.0,0.0,0.0,0.0,2.0431273841134363
1.4624329705176862,-0.014939489023386172,0.03158503308353502,0.0,0.0,0.0,0.0,0.0,0.0,2.765581945228097
1.4769333852287863,0.1860945862478454,0.08271063464362466,0.0,0.0,0.0,0.0,0.0,0.0,0.9183189539699562
1.4729221233465306,0.10757142903586928,0.002588900325249357,0.0,0.0,0.0,0.0,0.0,0.0,3.7680258944102203
1.5382970623590482,0.0036219962949782824,-0.08056702331394576,0.0,0.0,0.0,0.0,0.0,0.0,2.1081272911017668
1.3432374690026416,0.06661681034645296,-0.039400622639024566,0.0,0.0,0.0,0.0,0.0,0.0,3.5706466779594197
1.5745871114800285,0.05397477839414319,-0.013470250472841679,0.0,0.0,0.0,0.0,0.0,0.0,2.848608059304996
1.4995493484110807,0.09764065384874948,-0.06743351241105403,0.0,0.0,0.0,0.0,0.0,0.0,1.5080784184435188
1.4886743113074055,0.021026803628362938,-0.21435243465367557,0.0,0.0,0.0,0.0,0.0,0.0,1.627340298185834
1.4909657842844963,0.11334024264434449,0.05052656015764217,0.0,0.0,0.0,0.0,0.0,0.0,0.6062272625583188
1.5161472514421006,0.2209912687443436,-0.004272390411897706,0.0,0.0,0.0,0.0,0.0,0.0,0.9659558414336656
1.295528202086897,0.13271379539363162,0.05828422477468567,0.0,0.0,0.0,0.0,0.0,0.0,3.7519310217104924
1.6722590813310756,0.23690111904007263,-0.057087914042313496,0.0,0.0,0.0,0.0,0.0,0.0,1.4081576513316534
1.3463615177871664,0.03913757357719124,0.012269476909896698,0.0,0.0,0.0,0.0,0.0,0.0,4.574989516546761
1.6848984512865939,-0.07371683366200343,0.15830423756417014,0.0,0.0,0.0,0.0,0.0,0.0,1.7052182090460735
1.5341621172684312,-0.03390800894159426,0.17861650372987398,0.0,0.0,0.0,0.0,0.0,0.0,3.551338090176614
1.4439790305779865,-0.08627287306369337,-0.2235031960301812,0.0,0.0,0.0,0.0,0.0,0.0,2.1747332016147767
1.5014120132021358,0.08935999720207023,-0.19844659311663837,0.0,0.0,0.0,0.0,0.0,0.0,3.416767448419308
1.5621780299154915,0.047388248786282304,-0.042138896545726,0.0,0.0,0.0,0.0,0.0,0.0,5.828106619053505
1.4971119568422158,0.08642590232738874,-0.0013661888311428502,0.0,0.0,0.0,0.0,0.0,0.0,4.079833670497324
1.611422608999426,0.0021878726823086974,0.03518727073314926,0.0,0.0,0.0,0.0,0.0,0.0,2.0702685782131436
1.3705698768600592,-0.07728764079971225,0.03959766716907868,0.0,0.0,0.0,0.0,0.0,0.0,2.438856904043699
1.506199202981941,-0.173069140781198,-0.10811906278374382,0.0,0.0,0.0,0.0,0.0,0.0,5.7335899457818815
1.3589050945233336,-0.047210465440192,0.019248612624006647,0.0,0.0,0.0,0.0,0.0,0.0,3.797412147548405
1.618500882375516,-0.041810288353752945,-0.009491854828734438,0.0,0.0,0.0,0.0,0.0,0.0,1.934176079601823
1.5529410582871563,0.11342210796158832,-0.11524345295434611,0.0,0.0,0.0,0.0,0.0,0.0,1.6629534062862266
1.4892128593508764,-0.1432547885222175,0.15395504224279005,0.0,0.0,0.0,0.0,0.0,0.0,1.119911601891157
1.612812488036918,-0.04258868198488494,0.1777518449000706,0.0,0.0,0.0,0.0,0.0,0.0,3.7101969022056207
1.5974623170769544,-0.003775223717300381,-0.14710407649391108,0.0,0.0,0.0,0.0,0.0,0.0,3.048478569645789
1.56563035892375,0.0005342576270442413,-0.08236564878453849,0.0,0.0,0.0,0.0,0.0,0.0,2.227104604352428
1.4551424060977154,-0.013471678585156716,-0.15405956066432752,0.0,0.0,0.0,0.0,0.0,0.0,3.195948244644254
1.3429306427915573,0.1550221637455469,0.23067070748489998,0.0,0.0,0.0,0.0,0.0,0.0,3.732292178418677
1.5635025830307614,-0.15701044594773392,-0.021904397151542396,0.0,0.0,0.0,0.0,0.0,0.0,3.581704579390337
1.5656816069995392,-0.0390305193665538,0.040211701751537085,0.0,0.0,0.0,0.0,0.0,0.0,3.1700583507336275
1.6191635550288273,-0.09753021396943652,-0.1717284147335586,0.0,0.0,0.0,0.0,0.0,0.0,2.471699929543584
1.4834021919165672,0.2019088792551189,-0.023428940029693354,0.0,0.0,0.0,0.0,0.0,0.0,5.854713669645249
1.4236083471366916,-0.04068267349289092,-0.07683274501369258,0.0,0.0,0.0,0.0,0.0,0.0,1.6785745172741742
1.496412043688266,-0.07443052973246181,-0.028160996756804918,0.0,0.0,0.0,0.0,0.0,0.0,1.4410867296117968
1.4586176053952258,-0.26492117655109043,-0.08023607756721529,0.0,0.0,0.0,0.0,0.0,0.0,4.198055676635502
1.462671112422924,-0.08261357046035682,0.003426013934763418,0.0,0.0,0.0,0.0,0.0,0.0,2.51449156048585
1.4735916159557874,0.05949053442303906,0.07090086879617284,0.0,0.0,0.0,0.0,0.0,0.0,0.6399257936452066
1.5237041537677904,-0.050730856723635545,0.036721424490514895,0.0,0.0,0.0,0.0,0.0,0.0,3.165241383839482
1.2839670717658767,0.03746085987210152,0.16345858243664696,0.0,0.0,0.0,0.0,0.0,0.0,2.3624584847401158
1.4956359987658658,-0.11582516445304253,0.02194519214953783,0.0,0.0,0.0,0.0,0.0,0.0,3.752808079142151
1.476434412630473,-0.11816580256846781,-0.1173042270370865,0.0,0.0,0.0,0.0,0.0,0.0,1.005721891560987
1.416490293365465,-0.18624426202088248,-0.07367891868697017,0.0,0.0,0.0,0.0,0.0,0.0,2.892778487015394
1.6494425067689282,-0.006120250568812495,-0.09086872922232588,0.0,0.0,0.0,0.0,0.0,0.0,1.7135750001956185
1.3675300079462236,0.12294846335146295,-0.15430582223224437,0.0,0.0,0.0,0.0,0.0,0.0,1.0403948087082016
1.5481903483201396,0.06305902455122143,0.015789432728004902,0.0,0.0,0.0,0.0,0.0,0.0,2.9583889176276736
1.5632707312600453,-0.059953994449826534,0.35909926428307837,0.0,0.0,0.0,0.0,0.0,0.0,2.7982776768515896
1.5504736842982587,0.07981339840420693,-0.02156081580558374,0.0,0.0,0.0,0.0,0.0,0.0,3.1572606520778135
1.3383770647720634,-0.05609953122911156,-0.10536478224328723,0.0,0.0,0.0,0.0,0.0,0.0,3.9164213817100397
1.4076468829815347,0.017921500640630326,0.001213037406966477,0.0,0.0,0.0,0.0,0.0,0.0,3.334779126358562
1.4747028367111796,0.009608473977620123,-0.07610095061018186,0.0,0.0,0.0,0.0,0.0,0.0,5.57939251097876
1.4907108814280519,-0.08565018443461567,0.24457053317822441,0.0,0.0,0.0,0.0,0.0,0.0,3.15121295914106
1.4972404605783256,-0.020321785795875062,-0.05022113508439368,0.0,0.0,0.0,0.0,0.0,0.0,2.286974571763457
1.3507974958589042,0.047139449679740264,0.029820822502791295,0.0,0.0,0.0,0.0,0.0,0.0,4.414160615203381
1.4585589027848749,0.06884226465727784,0.028274093827390285,0.0,0.0,0.0,0.0,0.0,0.0,5.046927644648992
1.5273577044396274,-0.1132467223389188,-0.0930307050567945,0.0,0.0,0.0,0.0,0.0,0.0,4.243593252300474
1.3418931724329226,-0.2131463530094036,0.18350382350975192,0.0,0.0,0.0,0.0,0.0,0.0,5.128794428246348
1.3123731576678328,-0.03569007920177401,-0.20213072017798484,0.0,0.0,0.0,0.0,0.0,0.0,4.917819946777636
1.3040579959315097,0.07009608827561807,0.021108387712531054,0.0,0.0,0.0,0.0,0.0,0.0,2.153683639550007
1.5980249333689536,-0.1046618813077208,-0.0034987172958774668,0.0,0.0,0.0,0.0,0.0,0.0,3.0517755796368276
1.5809008837863807,0.1397720176742752,0.06746401335912187,0.0,0.0,0.0,0.0,0.0,0.0,2.8407600077395627
1.5384626386132538,-0.11062624407225777,0.03584480791976619,0.0,0.0,0.0,0.0,0.0,0.0,2.1231191909437466
1.623305098208081,-0.18937645956462135,-0.10425549504103458,0.0,0.0,0.0,0.0,0.0,0.0,2.8808694172063025
1.67442247718435,0.11888288126483426,0.028488787795044684,0.0,0.0,0.0,0.0,0.0,0.0,3.165796400289714
1.5261864255616437,-0.007907934134653403,0.11121997364099062,0.0,0.0,0.0,0.0,0.0,0.0,2.670776138595077
1.6217657696772418,-0.0407819845288204,-0.006611348376485586,0.0,0.0,0.0,0.0,0.0,0.0,0.8805400622338021
1.3654610730025012,-0.05380964803616282,-0.08912370699822404,0.0,0.0,0.0,0.0,0.0,0.0,4.181476822442806
1.6747921415294527,0.1602931136340759,0.2285261738168512,0.0,0.0,0.0,0.0,0.0,0.0,3.712816631906929
1.4755872125495029,-0.039195327563151576,0.028577826492837733,0.0,0.0,0.0,0.0,0.0,0.0,2.9317069202054484
1.443689223490517,0.11586903766861095,0.06412674335708848,0.0,0.0,0.0,0.0,0.0,0.0,4.2999360783288605
1.5324499362495725,0.34233218019174133,-0.07534235872707873,0.0,0.0,0.0,0.0,0.0,0.0,5.179396626296606
1.6138367051126568,-0.054223182897206415,-0.1507839391500634,0.0,0.0,0.0,0.0,0.0,0.0,3.7845812915308517
1.4055685719334798,-0.1310325492615998,-0.20040323224671128,0.0,0.0,0.0,0.0,0.0,0.0,1.6911370833284278
1.5428808074423965,-0.0613939883542347,0.08139727346325808,0.0,0.0,0.0,0.0,0.0,0.0,1.3022338700645186
1.545754581906945,0.054429884353814476,0.004084776755884699,0.0,0.0,0.0,0.0,0.0,0.0,2.5983759322718427
1.6617078840125368,-0.039351537873228544,0.013232538713916843,0.0,0.0,0.0,0.0,0.0,0.0,3.0168589597068713
1.4936218640183574,-0.042818739347426506,0.03067420225656649,0.0,0.0,0.0,0.0,0.0,0.0,3.766920746665059
1.409722173243339,-0.08395624177209772,-0.18153704577789964,0.0,0.0,0.0,0.0,0.0,0.0,3.02568502199388
1.4702397607491973,0.18922458790166383,0.055880690108264464,0.0,0.0,0.0,0.0,0.0,0.0,3.1353257041664877
1.4197614215026328,0.11643813280347576,-0.06555705689090949,0.0,0.0,0.0,0.0,0.0,0.0,3.1871278135509677
1.3188235108161401,-0.17063496365901012,0.01731765133326386,0.0,0.0,0.0,0.0,0.0,0.0,5.2377166618861555
1.3097252606545524,0.09448756990314908,0.08315413762380103,0.0,0.0,0.0,0.0,0.0,0.0,2.9858949982872165
1.4897200310181542,-0.10653702577518243,0.07622790191009475,0.0,0.0,0.0,0.0,0.0,0.0,4.217314851575734
1.5931753818281278,-0.04173821492323225,0.17504590368632578,0.0,0.0,0.0,0.0,0.0,0.0,4.956509357005336
1.4255658680693504,-0.039700665690230834,-0.1598113199733952,0.0,0.0,0.0,0.0,0.0,0.0,2.4627491545661697
1.4438035131638003,-0.004234939505776371,-0.02917171366072399,0.0,0.0,0.0,0.0,0.0,0.0,4.107575520291137
1.4725861898597077,0.0359477585864004,-0.15596868486382193,0.0,0.0,0.0,0.0,0.0,0.0,2.108961114177406
1.595623110863714,-0.08349185376181674,-0.011877865581793668,0.0,0.0,0.0,0.0,0.0,0.0,4.677521464040425
1.555482796481527,0.17142520120742377,0.03992987912276988,0.0,0.0,0.0,0.0,0.0,0.0,3.654912678063132
1.5799079649572505,-0.07608325345660114,-0.11315694030258992,0.0,0.0,0.0,0.0,0.0,0.0,3.115673128989637
1.5026747153269944,-0.021947750999742992,-0.05327206279707225,0.0,0.0,0.0,0.0,0.0,0.0,3.2523709413829067
1.5712926252026413,-0.19332244862451647,0.18011462963721095,0.0,0.0,0.0,0.0,0.0,0.0,2.4947061645715016
1.3510700003786653,-0.12113623194642419,-0.08483820766199185,0.0,0.0,0.0,0.0,0.0,0.0,3.065881016966667
1.4479086668359493,0.019938093525337056,0.03382364132071006,0.0,0.0,0.0,0.0,0.0,0.0,3.438090802680809
1.5323429684288223,-0.13611143965411163,-0.021591839471514537,0.0,0.0,0.0,0.0,0.0,0.0,3.874346647052054
1.468183255831479,-0.07993806986204437,-0.04322208528048594,0.0,0.0,0.0,0.0,0.0,0.0,2.5864415556711267
1.4162668481239098,-0.1186360919140896,-0.015522469105938103,0.0,0.0,0.0,0.0,0.0,0.0,1.3517265559353648
1.5705802534046196,0.08100511762926765,-0.06551367349878744,0.0,0.0,0.0,0.0,0.0,0.0,4.453163156949388
1.5295170143432464,0.040737427308867764,-0.06693132389679156,0.0,0.0,0.0,0.0,0.0,0.0,5.715671603577993
1.3019558983226396,0.01646297594486893,-0.048286790373194055,0.0,0.0,0.0,0.0,0.0,0.0,1.4318419481728588
1.5259053468114612,-0.01164671686999502,0.03651665435265411,0.0,0.0,0.0,0.0,0.0,0.0,3.035417752922951
1.557466702128914,0.030960903905024085,-0.11113500837896229,0.0,0.0,0.0,0.0,0.0,0.0,2.5521623578831663
1.7897532918694847,-0.0018975459606879936,0.0062648329903504845,0.0,0.0,0.0,0.0,0.0,0.0,3.043901667752441
1.4293881436461617,-0.02962025228962757,-0.07727328550790452,0.0,0.0,0.0,0.0,0.0,0.0,1.6256032526944428
1.640500188120176,0.2513300776401884,0.11476918245665335,0.0,0.0,0.0,0.0,0.0,0.0,0.46848837721504166
1.6226591139971613,-0.054696915084088665,-0.007850988766008545,0.0,0.0,0.0,0.0,0.0,0.0,5.312664708109549
1.4097139458312593,-0.12557525388504076,-0.22137120755755532,0.0,0.0,0.0,0.0,0.0,0.0,4.173038534437692
1.4468380921073853,0.05550581050312112,-0.07833090795197568,0.0,0.0,0.0,0.0,0.0,0.0,4.317045405843203
1.4967907956382822,-0.10749961946608207,0.27562821228099627,0.0,0.0,0.0,0.0,0.0,0.0,4.695007100349542
1.554410743450359,0.1843906849002465,0.06872249161270134,0.0,0.0,0.0,0.0,0.0,0.0,3.49478754393574
1.712819522545837,-0.03580283018562363,-0.035482062199948754,0.0,0.0,0.0,0.0,0.0,0.0,4.098844698112772
1.4347481833091416,0.001431617769804274,0.020480685958657846,0.0,0.0,0.0,0.0,0.0,0.0,2.6908287569366593
1.5439836718483995,0.005139795605984161,0.09314705080881795,0.0,0.0,0.0,0.0,0.0,0.0,2.7668745544478592
1.4465384513676316,0.059731622343605,0.06994994058086133,0.0,0.0,0.0,0.0,0.0,0.0,1.1402096199747487
1.430324675447407,0.24521373375592895,0.08756518148663162,0.0,0.0,0.0,0.0,0.0,0.0,2.518636403131456
1.5041233824690108,0.0910675527935626,0.011310899516693307,0.0,0.0,0.0,0.0,0.0,0.0,2.3195214157662987
1.5434587067467787,0.14492367543205031,0.025121615564156336,0.0,0.0,0.0,0.0,0.0,0.0,5.174953294052079
1.513905146471723,-0.04510293356867411,0.045680453706312685,0.0,0.0,0.0,0.0,0.0,0.0,3.448845245294104
1.519860516880645,0.046610017809729704,0.031352781740462105,0.0,0.0,0.0,0.0,0.0,0.0,3.294976473166057
1.4104696708142932,-0.11096437689268862,-0.038456545773209734,0.0,0.0,0.0,0.0,0.0,0.0,3.853180694497988
1.500468185955367,0.09173134487238907,0.016949253602513602,0.0,0.0,0.0,0.0,0.0,0.0,3.9818376457014537
1.4572892438922855,0.09040877878314321,-0.14350721469370892,0.0,0.0,0.0,0.0,0.0,0.0,4.668262742889861
1.3769294800453558,-0.24873218775448114,0.09409785915994548,0.0,0.0,0.0,0.0,0.0,0.0,3.364041585705529
1.5366764038273284,-0.07805405763991655,0.07478092294101642,0.0,0.0,0.0,0.0,0.0,0.0,3.66944170053663
1.4941804056818428,0.04090085305759883,0.027407634731774284,0.0,0.0,0.0,0.0,0.0,0.0,1.5350284792201914
1.2906191622793068,0.10995780839010189,-0.022097392624789006,0.0,0.0,0.0,0.0,0.0,0.0,1.6236879719510227
1.46459330553555,-0.1021216909176189,-0.007604233631196331,0.0,0.0,0.0,0.0,0.0,0.0,0.6986017483537792
1.452548693837378,-0.01726454995080854,-0.0008874090322752174,0.0,0.0,0.0,0.0,0.0,0.0,3.559367959057084
1.5989560469256006,0.030145760042982996,-0.14851332118201108,0.0,0.0,0.0,0.0,0.0,0.0,0.8596054123673668
1.585366785337357,-0.05896876187725201,-0.08706832943729031,0.0,0.0,0.0,0.0,0.0,0.0,4.1824880089692575
1.4202414869757896,-0.08086572794626255,0.04473979264686564,0.0,0.0,0.0,0.0,0.0,0.0,2.974391741113015
1.3654503812012817,-0.050153239141646926,-0.13231178786050674,0.0,0.0,0.0,0.0,0.0,0.0,2.8432203436824084
1.3032383887268688,0.05207956945778619,0.14357622030489736,0.0,0.0,0.0,0.0,0.0,0.0,4.063865502846717
1.5090201762456097,0.07444377351651392,0.11317071909334907,0.0,0.0,0.0,0.0,0.0,0.0,3.2539331854732554
1.6063494666230147,0.02586520012149949,0.1547659123229922,0.0,0.0,0.0,0.0,0.0,0.0,4.167104418326776
1.528480490693823,-0.16069928835843642,-0.019065862469124124,0.0,0.0,0.0,0.0,0.0,0.0,3.0252488975249623
1.5520861798766192,-0.054621073262768875,-0.051846830421410375,0.0,0.0,0.0,0.0,0.0,0.0,4.5266108263350695
1.4467759069917363,-0.10525470133402084,0.002711101871161843,0.0,0.0,0.0,0.0,0.0,0.0,2.170467078073863
1.5686476882039437,-0.011553442436616998,0.007794477728961986,0.0,0.0,0.0,0.0,0.0,0.0,2.379055180014967
1.7929838019764057,0.07368181745985415,-0.0780721034413507,0.0,0.0,0.0,0.0,0.0,0.0,4.002953860374861
1.350602332535839,0.05029238164465745,-0.14940160889777618,0.0,0.0,0.0,0.0,0.0,0.0,1.7871910876805108
1.5478467601579156,0.11783394074208178,0.034043189045107704,0.0,0.0,0.0,0.0,0.0,0.0,2.5478996187887173
1.4266239868924475,0.04078617969909209,0.07097578760106397,0.0,0.0,0.0,0.0,0.0,0.0,1.9195072568413805
1.5081076440385366,-0.00501953595444183,-0.21972228536388758,0.0,0.0,0.0,0.0,0.0,0.0,4.006600022769254
1.4284347551521033,-0.16804463602731923,-0.04045925517022422,0.0,0.0,0.0,0.0,0.0,0.0,2.654181135378108
1.720516591477734,-0.0035959597929476578,0.017056873401573438,0.0,0.0,0.0,0.0,0.0,0.0,2.4298300759873377
1.5400056731259917,-0.10874020033273842,0.06118288176200959,0.0,0.0,0.0,0.0,0.0,0.0,4.021347184951869
1.4352831296032313,-0.013068401134342645,0.045459934337032847,0.0,0.0,0.0,0.0,0.0,0.0,4.074577811916173
1.6193274426990438,-0.005495901759366797,0.016215217380122826,0.0,0.0,0.0,0.0,0.0,0.0,4.535781707803041
1.5248115024565574,0.14236633445604732,0.2799098650139515,0.0,0.0,0.0,0.0,0.0,0.0,1.1554476945530938
1.6576597521450651,-0.11273703136925223,-0.044176462114476095,0.0,0.0,0.0,0.0,0.0,0.0,4.586103908421868
1.6684917018834091,-0.042498492097461,0.11227524980661133,0.0,0.0,0.0,0.0,0.0,0.0,3.1759837796680137
1.5638587874236247,-0.06890150236272852,-0.05920930578082437,0.0,0.0,0.0,0.0,0.0,0.0,5.15851915768867
1.3176160101669867,-0.12239369129582783,0.05681453947473754,0.0,0.0,0.0,0.0,0.0,0.0,3.140075430649731
1.5814032879249764,-0.07051635915448361,0.0325974254543577,0.0,0.0,0.0,0.0,0.0,0.0,4.94551642877998
1.5319805204324077,0.05088496510699012,0.04427527675732548,0.0,0.0,0.0,0.0,0.0,0.0,3.3858519032593763
1.3792202511041611,0.024988001662203028,-0.09055286796622826,0.0,0.0,0.0,0.0,0.0,0.0,3.3051571308262115
1.4963496012024875,-0.05716154844101104,0.0020930704274716226,0.0,0.0,0.0,0.0,0.0,0.0,2.911802914825694
1.529268657974352,-0.09982758979803584,0.021290785382288208,0.0,0.0,0.0,0.0,0.0,0.0,2.6450229523806685
1.3778503583864816,0.07981340518286875,-0.1195703424162865,0.0,0.0,0.0,0.0,0.0,0.0,0.8210849661943588
1.4989905075364909,-0.10123619037718623,-0.1049889651319767,0.0,0.0,0.0,0.0,0.0,0.0,2.8467648937743877
1.6914984588343605,0.012324385983092392,0.022128376232884574,0.0,0.0,0.0,0.0,0.0,0.0,2.11023078179028
1.5166657378582165,-0.039619362687181886,-0.07832240751615317,0.0,0.0,0.0,0.0,0.0,0.0,3.604111604990295
1.4209491730375707,-0.1428906418194661,-0.10842582681255611,0.0,0.0,0.0,0.0,0.0,0.0,2.445565990040833
1.4118668411135467,-0.09529163633732773,-0.033545075842149295,0.0,0.0,0.0,0.0,0.0,0.0,5.648878026783691
1.3952297958785953,-0.11461121472886515,-0.11651027499832217,0.0,0.0,0.0,0.0,0.0,0.0,1.6572495053217695
1.562792685209617,0.13050077287427156,0.06691570731041573,0.0,0.0,0.0,0.0,0.0,0.0,0.6866235280738049
1.2748180188594425,-0.022960985305561378,0.1610275202881844,0.0,0.0,0.0,0.0,0.0,0.0,2.180936557820272
1.3425573631852632,0.16020527611354574,0.1032522824875881,0.0,0.0,0.0,0.0,0.0,0.0,3.8188637273752137
1.460033414500615,0.05119136993525996,0.07165406304232043,0.0,0.0,0.0,0.0,0.0,0.0,3.514727717958555
1.4466553010660788,-0.01101309688222027,-0.006259858099717884,0.0,0.0,0.0,0.0,0.0,0.0,2.5178366661946217
1.3255323154153709,-0.17200241060842086,-0.08864980219995863,0.0,0.0,0.0,0.0,0.0,0.0,1.8688712844542914
1.5330395621542359,-0.10405867210327446,0.1891411058812879,0.0,0.0,0.0,0.0,0.0,0.0,4.040732455594056
1.6851387145490762,-0.07555908873503758,-0.0597879199904772,0.0,0.0,0.0,0.0,0.0,0.0,4.421844541802817
1.6111982828900597,0.09169700389195037,0.001324264973409762,0.0,0.0,0.0,0.0,0.0,0.0,4.645579934873846
1.5355248727328166,0.03494454883800671,0.20575186173634497,0.0,0.0,0.0,0.0,0.0,0.0,1.547219798064041
1.4799262014571266,0.04565492786338074,-0.04359259213312263,0.0,0.0,0.0,0.0,0.0,0.0,0.2147238045715026
1.4627154115348744,-0.049483037273702485,0.21831057032713388,0.0,0.0,0.0,0.0,0.0,0.0,2.340122626236237
1.6241123593573863,0.13269688134449245,0.1002877558758544,0.0,0.0,0.0,0.0,0.0,0.0,3.877995459874122
1.4513738591029175,-0.07271442160010716,-0.07586731506959105,0.0,0.0,0.0,0.0,0.0,0.0,2.2028645677147676
1.5713564556008448,0.0861283637174578,-0.18897712382840984,0.0,0.0,0.0,0.0,0.0,0.0,2.826810809610474
1.386427725713692,-0.042591241271994734,0.09634820754996909,0.0,0.0,0.0,0.0,0.0,0.0,4.02918653443444
1.3143463384548706,-0.1818749860142468,-0.09501292021298278,0.0,0.0,0.0,0.0,0.0,0.0,3.2000301137568705
1.5397290104985695,-0.11892071033238175,-0.05531282447186937,0.0,0.0,0.0,0.0,0.0,0.0,5.206194134621998
1.5891164935124904,-0.04617790546797167,-0.14701214220566403,0.0,0.0,0.0,0.0,0.0,0.0,3.4226738592376202
1.5624053176507815,-0.06739523613021355,0.07594640638203942,0.0,0.0,0.0,0.0,0.0,0.0,5.738526058540829
1.4448032922667495,-0.13434150677636364,-0.0951369439314072,0.0,0.0,0.0,0.0,0.0,0.0,1.18842691798192
1.5296982770394512,-0.008528036389518913,-0.0714297427806146,0.0,0.0,0.0,0.0,0.0,0.0,3.4641586697083224
1.497931423973563,-0.03324570242692979,-0.03471837432400657,0.0,0.0,0.0,0.0,0.0,0.0,4.274798756975773
1.3850403411371803,-0.09442903835932215,-0.00411913309415204,0.0,0.0,0.0,0.0,0.0,0.0,3.567894522325273
1.61241718361427,0.045770207260649655,0.07814440301035888,0.0,0.0,0.0,0.0,0.0,0.0,2.5267421918327084
1.509753195850823,-0.16506787844592932,0.27461123021691114,0.0,0.0,0.0,0.0,0.0,0.0,0.5294966217409217
1.4906657703964596,0.09319713197063982,0.09540213480750738,0.0,0.0,0.0,0.0,0.0,0.0,2.340473849655456
1.5786425255281198,-0.1252680633283517,0.04141253393065349,0.0,0.0,0.0,0.0,0.0,0.0,4.8997690584743365
1.4876484173223001,-0.03214227261039399,0.07089024658650113,0.0,0.0,0.0,0.0,0.0,0.0,1.8619473725077285
1.490529073153877,0.10662966646512861,0.005130342555804815,0.0,0.0,0.0,0.0,0.0,0.0,1.6981230031842702
1.5370264320962677,0.011071025216922116,-0.07275511241717665,0.0,0.0,0.0,0.0,0.0,0.0,2.56947196525207
1.4508129161230785,-0.1278007805208973,0.23679309088954043,0.0,0.0,0.0,0.0,0.0,0.0,0.4288460032086452
1.5225324995713252,-0.09054170177652156,-0.003003586942062057,0.0,0.0,0.0,0.0,0.0,0.0,3.4760739522982287
1.6235354489409968,0.01647592200386062,0.022393930062165685,0.0,0.0,0.0,0.0,0.0,0.0,4.8601330076733245
1.4692775781864567,0.0867370443338713,0.12146766521396563,0.0,0.0,0.0,0.0,0.0,0.0,1.3117218868712412
1.488224267601814,-0.15845539181318227,-0.016874472734357628,0.0,0.0,0.0,0.0,0.0,0.0,4.983068945685743
1.598886783995845,0.09748406926779891,-0.20793967760028106,0.0,0.0,0.0,0.0,0.0,0.0,1.9684013791021646
1.4817521233632591,-0.28637396155173184,0.009321795983458158,0.0,0.0,0.0,0.0,0.0,0.0,2.117325258400917
1.5435261742295268,0.15395134270174185,-0.03854505580642519,0.0,0.0,0.0,0.0,0.0,0.0,4.216686023018998
1.3682902988991992,-0.04007262797411376,-0.048235070589569155,0.0,0.0,0.0,0.0,0.0,0.0,4.328299318686042
1.4077765711208885,0.06823933355894356,0.07581208953703192,0.0,0.0,0.0,0.0,0.0,0.0,4.608260168061467
1.422754403265588,-0.023030486808046563,0.01389540818168175,0.0,0.0,0.0,0.0,0.0,0.0,2.901506474447522
1.5280276744267007,-0.13276000949606834,-0.050545082047966754,0.0,0.0,0.0,0.0,0.0,0.0,2.6320096371532395
1.4926880781238183,-0.20678315689769056,0.0759186200371781,0.0,0.0,0.0,0.0,0.0,0.0,2.1835850067748304
1.3555138330931986,0.07701480763158412,-0.009583392412578025,0.0,0.0,0.0,0.0,0.0,0.0,2.38700527023306
1.4221784111659166,0.15443243145410024,0.21894821635969805,0.0,0.0,0.0,0.0,0.0,0.0,4.329675285217415
1.629378787009469,-0.11402431927245985,-0.011664187750958201,0.0,0.0,0.0,0.0,0.0,0.0,5.031105238330931
1.4731705172652887,0.08363971913679306,-0.18282998305126114,0.0,0.0,0.0,0.0,0.0,0.0,2.9919739828624774
1.4258169946917154,0.21474815979455367,-0.014392322076594875,0.0,0.0,0.0,0.0,0.0,0.0,4.013056915668727
1.3998908941121968,0.025785228161173648,-0.11566663656960566,0.0,0.0,0.0,0.0,0.0,0.0,3.846310277710456
1.3651502222517184,0.12665122653642855,0.0332743541216557,0.0,0.0,0.0,0.0,0.0,0.0,3.04925048150835
1.5794316552945546,0.0966352437835816,0.11494827839395796,0.0,0.0,0.0,0.0,0.0,0.0,2.1012000650627556
1.3686589246456746,-0.1662736883935876,0.005504367330223592,0.0,0.0,0.0,0.0,0.0,0.0,2.9293989699119485
1.2978818831436993,0.022821497970917592,0.05248226407165694,0.0,0.0,0.0,0.0,0.0,0.0,3.492872133337727
1.5514761628790872,0.014997874832295623,0.05915623671949133,0.0,0.0,0.0,0.0,0.0,0.0,4.127973902690083
1.4728335770661094,-0.07330954702033676,-0.03626754034563391,0.0,0.0,0.0,0.0,0.0,0.0,3.7193313034549984
1.5384226730886925,-0.16074206535133823,-0.007779724839560118,0.0,0.0,0.0,0.0,0.0,0.0,1.5038697046085543
1.3533363414600743,0.11866556623468222,0.07265595057935381,0.0,0.0,0.0,0.0,0.0,0.0,1.6092420137614771
1.3500409222800245,-0.12473434053492172,0.07237388845475451,0.0,0.0,0.0,0.0,0.0,0.0,1.8478557416529238
1.4256267059001233,0.0448555338129055,0.00034988886275196256,0.0,0.0,0.0,0.0,0.0,0.0,1.1493296917794886
1.5503332334732909,0.10651161298561254,-0.0167355237188129,0.0,0.0,0.0,0.0,0.0,0.0,2.6422490641365712
1.6339365354890576,-0.05619389192322403,0.07771010911049658,0.0,0.0,0.0,0.0,0.0,0.0,1.5535084769619605
1.5132147661229245,-0.012224517741551076,-0.016573352570135397,0.0,0.0,0.0,0.0,0.0,0.0,2.4236373640404487
1.6652845134377257,0.031638882906383774,0.06710520829912743,0.0,0.0,0.0,0.0,0.0,0.0,5.789181851040822
1.4998202677517827,0.03270438303114525,-0.047462243572850234,0.0,0.0,0.0,0.0,0.0,0.0,1.1831295030783298
1.419902326331157,-0.07502251018317779,0.16235315180860044,0.0,0.0,0.0,0.0,0.0,0.0,2.870880191174989
1.4487718683635638,-0.10542718521522172,-0.08502761730252163,0.0,0.0,0.0,0.0,0.0,0.0,1.6475424169407793
1.432373542004058,-0.0046901575719380025,-0.060107490525603685,0.0,0.0,0.0,0.0,0.0,0.0,2.023472087954946
1.4173422289605033,0.014060987962810374,0.053743106056363135,0.0,0.0,0.0,0.0,0.0,0.0,2.0275305235594856
1.6576124431902781,0.03841269206862265,0.10815062820715891,0.0,0.0,0.0,0.0,0.0,0.0,1.9516691585499264
1.485074560747244,-0.09706103138777009,0.24748297334964553,0.0,0.0,0.0,0.0,0.0,0.0,1.5495828536745
1.4169871280428197,-0.0021396419998525006,0.07327931528671323,0.0,0.0,0.0,0.0,0.0,0.0,3.098782649920081
1.5658418768745963,0.03192040067657298,-0.20601139617012507,0.0,0.0,0.0,0.0,0.0,0.0,2.9316750814679944
1.520888750501495,-0.30410694031734153,0.20876304461393855,0.0,0.0,0.0,0.0,0.0,0.0,3.1054151964775296
1.5422664571643525,0.07799353379531704,-0.0976036701907074,0.0,0.0,0.0,0.0,0.0,0.0,3.174423344227295
1.4932923517149155,0.007423677415219619,-0.011495039054250646,0.0,0.0,0.0,0.0,0.0,0.0,2.463147997759796
1.359571094661065,-0.03179769279029804,-0.060795336703219155,0.0,0.0,0.0,0.0,0.0,0.0,5.064377613820862
1.502928018509341,0.09530573574523467,-0.045441194591981315,0.0,0.0,0.0,0.0,0.0,0.0,3.118078885542063
1.3884234758419303,0.09686888877556386,-0.10107120428328198,0.0,0.0,0.0,0.0,0.0,0.0,2.8329153628920665
1.5054725732218386,0.03408895968237507,-0.14706963232174605,0.0,0.0,0.0,0.0,0.0,0.0,3.6178686757429084
1.4732653867217735,-0.0612206505074199,0.01260514016810565,0.0,0.0,0.0,0.0,0.0,0.0,1.3912928463024037
1.452680238327033,0.07663061924069153,0.1060051171979287,0.0,0.0,0.0,0.0,0.0,0.0,5.2335805735224685
1.4739081496648405,-0.027954715866144328,-0.24316348916264283,0.0,0.0,0.0,0.0,0.0,0.0,3.3229513219652063
1.3929697419357785,0.028081263573480505,-0.009580672229539062,0.0,0.0,0.0,0.0,0.0,0.0,2.703596844644998
1.592825613465893,-0.14207937913392496,0.1773937781352061,0.0,0.0,0.0,0.0,0.0,0.0,1.9926390065536002
1.4510818078145418,-0.003961942586235786,-0.14329636390317588,0.0,0.0,0.0,0.0,0.0,0.0,4.086166407243017
1.375737909729618,0.015864327053689894,-0.09466081622948282,0.0,0.0,0.0,0.0,0.0,0.0,4.485273596570203
1.4109413184850161,0.11942268614397909,-0.1031612770873096,0.0,0.0,0.0,0.0,0.0,0.0,3.4345220187343766
1.502550625426241,0.005504908008716992,-0.07132570612431595,0.0,0.0,0.0,0.0,0.0,0.0,4.268238596802878
1.5898572955136967,0.017326261834348957,-0.01123048550882972,0.0,0.0,0.0,0.0,0.0,0.0,4.106478765346789
1.43783028596055,0.027279354942714384,0.05205633420137107,0.0,0.0,0.0,0.0,0.0,0.0,4.72454996156987
1.6114535818137068,-0.03542317814538992,0.014475633154933408,0.0,0.0,0.0,0.0,0.0,0.0,3.1777185350447787
1.1544033854874527,-0.08979158940974517,-0.010770503855799437,0.0,0.0,0.0,0.0,0.0,0.0,3.5878552720669257
1.5772369004711042,0.004004751950648037,0.020497232921220864,0.0,0.0,0.0,0.0,0.0,0.0,3.359077165009445
1.3015240968669386,0.025163995988363715,0.003116838306871162,0.0,0.0,0.0,0.0,0.0,0.0,3.4868721709124393
1.3976308067092822,-0.0561357174319137,0.06782191091895916,0.0,0.0,0.0,0.0,0.0,0.0,5.382730930757368
1.4642980467506592,0.06225765240745819,-0.14153205194612906,0.0,0.0,0.0,0.0,0.0,0.0,2.9634173566562563
1.5651986204593469,-0.004207745272908883,-0.12635492443298407,0.0,0.0,0.0,0.0,0.0,0.0,2.5444283141461925
1.4727986508063893,-0.1475452633734867,0.044318902927526625,0.0,0.0,0.0,0.0,0.0,0.0,1.6538137635532255
1.4877242757405298,0.21627098600237457,0.06851219218375978,0.0,0.0,0.0,0.0,0.0,0.0,0.7636437261727486
1.5213436476310174,-0.08250550207519804,0.01287407086822395,0.0,0.0,0.0,0.0,0.0,0.0,3.406766780183613
1.4858696451411255,0.1050086253384926,0.12111745695415128,0.0,0.0,0.0,0.0,0.0,0.0,4.585502713416832
1.7267923290137464,0.033404853604283295,0.08942801240956974,0.0,0.0,0.0,0.0,0.0,0.0,1.9032787026857538
1.4390281525162143,0.07295285341348294,-0.1433618721216606,0.0,0.0,0.0,0.0,0.0,0.0,3.3518977008144213
1.5226182030726498,-0.054638623623027766,0.01712431844170733,0.0,0.0,0.0,0.0,0.0,0.0,5.186754568818152
1.6180179240226606,0.05713581701781756,-0.11283685028242557,0.0,0.0,0.0,0.0,0.0,0.0,4.240247852576063
1.525581905927415,-0.09475207587534176,0.14404766231315083,0.0,0.0,0.0,0.0,0.0,0.0,3.219126638928427
1.4741610937656275,-0.02705519935932591,0.12215731602855309,0.0,0.0,0.0,0.0,0.0,0.0,3.855248427341953
1.4440207910373852,-0.04314040220496437,0.029646021830569594,0.0,0.0,0.0,0.0,0.0,0.0,3.3831749717819126
1.3681484651095863,0.05530917536934137,-0.2528302128759322,0.0,0.0,0.0,0.0,0.0,0.0,5.316237727453013
1.5330871062934306,-0.04383879642511685,-0.14249542923422717,0.0,0.0,0.0,0.0,0.0,0.0,5.461682416760602
1.4039210830978213,0.015056957975396607,0.11759787429108165,0.0,0.0,0.0,0.0,0.0,0.0,3.906871381128352
1.3334826510836286,-0.21459429014399523,0.12193721633404837,0.0,0.0,0.0,0.0,0.0,0.0,2.242535092336395
1.5393545788816168,-0.129370446561192,-0.16446212657704185,0.0,0.0,0.0,0.0,0.0,0.0,3.1095988609212757
1.3638870792258246,-0.05784285789242038,-0.0866923941150356,0.0,0.0,0.0,0.0,0.0,0.0,2.7329728491859053
1.5442395260356057,-0.05685014637912803,-0.0964889965996431,0.0,0.0,0.0,0.0,0.0,0.0,2.153212891958665
1.465127915610431,0.10724758937861306,0.15603306260803348,0.0,0.0,0.0,0.0,0.0,0.0,3.178635508182001
1.446907703549123,-0.11444117988676182,0.07029102900298252,0.0,0.0,0.0,0.0,0.0,0.0,4.8780039642538835
1.5352364822230695,0.02461532383976438,0.017605101014537383,0.0,0.0,0.0,0.0,0.0,0.0,2.9144055191954457
1.4649481427360385,-0.04820261754927251,0.09390768259927132,0.0,0.0,0.0,0.0,0.0,0.0,2.278612834038601
1.443145868056474,-0.041817315707448295,-0.0705671725859753,0.0,0.0,0.0,0.0,0.0,0.0,2.4999830648763495
1.4796428615731307,-0.1378981346991468,0.08810485032687071,0.0,0.0,0.0,0.0,0.0,0.0,2.98983851640321
1.5261142663225622,0.027631795450972243,-0.01033440620912865,0.0,0.0,0.0,0.0,0.0,0.0,3.703244585040717
1.4552717734331915,0.07869034186713042,0.033931417897129244,0.0,0.0,0.0,0.0,0.0,0.0,1.5228977686023972
1.5161522677231958,0.18340363748078675,-0.14671031033135193,0.0,0.0,0.0,0.0,0.0,0.0,0.939440559172769
1.5372878109576058,-0.08419459007943808,-0.10741433700319825,0.0,0.0,0.0,0.0,0.0,0.0,3.5622172567301784
1.3993650173588554,0.014985606226178706,0.06578459220319853,0.0,0.0,0.0,0.0,0.0,0.0,2.417691336977058
1.587284571892839,-0.04387159707802062,-0.07936974570424049,0.0,0.0,0.0,0.0,0.0,0.0,5.265689509773602
1.6354174856171162,0.1034093838877775,0.011358263339002497,0.0,0.0,0.0,0.0,0.0,0.0,2.6351435625683326
1.5930642712726426,-0.19889882827174143,-0.0037438986006705604,0.0,0.0,0.0,0.0,0.0,0.0,2.1685038876605875
1.343389806185295,0.0019398846760893035,-0.04289665529502416,0.0,0.0,0.0,0.0,0.0,0.0,2.3261306972498086
1.5589296017218648,-0.07319084740957761,0.04271392226710696,0.0,0.0,0.0,0.0,0.0,0.0,5.433123722262826
1.4988297758294873,-0.19095605397374832,0.0679162826446369,0.0,0.0,0.0,0.0,0.0,0.0,5.808156100411349
1.4689567004573,0.08528040134342013,0.01698000051013179,0.0,0.0,0.0,0.0,0.0,0.0,3.0478247215690804
1.389468489502391,0.07105559576271682,-0.019417308870956287,0.0,0.0,0.0,0.0,0.0,0.0,3.4239486119191582
1.42446460679883,0.05738231746736227,0.11050776505438008,0.0,0.0,0.0,0.0,0.0,0.0,4.825198927616741
1.5342787657309478,0.14016982988519644,-0.05183442931498297,0.0,0.0,0.0,0.0,0.0,0.0,3.476658693278108
1.5010290422618038,0.1297475132270142,-0.06178441634656017,0.0,0.0,0.0,0.0,0.0,0.0,3.5905021017254213
1.4520225906677289,0.018330721071456647,-0.04044520226018801,0.0,0.0,0.0,0.0,0.0,0.0,3.460022291278744
1.477627665112741,0.16496352625855032,0.05769254533377486,0.0,0.0,0.0,0.0,0.0,0.0,5.318343576086747
1.4269453611780871,-0.09580803873626967,-0.10848100842882505,0.0,0.0,0.0,0.0,0.0,0.0,2.878903837560369
1.4142531357983672,0.03369347365771543,0.060129458836005435,0.0,0.0,0.0,0.0,0.0,0.0,4.1842198884086015
1.4931374306535685,-0.05872417041130527,-0.04364430920320327,0.0,0.0,0.0,0.0,0.0,0.0,2.485526921311777
1.5846638495103134,0.03645766892263299,0.09017342455039261,0.0,0.0,0.0,0.0,0.0,0.0,5.362040724320079
1.1653011771885062,0.04531337344330502,-0.09060916702932716,0.0,0.0,0.0,0.0,0.0,0.0,4.827320314712242
1.5278453218414654,0.053842516085517024,0.15259870886683613,0.0,0.0,0.0,0.0,0.0,0.0,1.8811275214009222
1.5222146858237726,-0.08015341072129196,-0.01259205178358534,0.0,0.0,0.0,0.0,0.0,0.0,3.0302461913416594
1.4842201461833051,0.028996330547660237,-0.025349584605696307,0.0,0.0,0.0,0.0,0.0,0.0,3.79273397862205
1.3375506039275442,-0.14878021919069048,-0.055901484218277786,0.0,0.0,0.0,0.0,0.0,0.0,1.7869146324667162
1.4395521924555157,0.0345251377681255,-0.052269297139811356,0.0,0.0,0.0,0.0,0.0,0.0,2.585512963536996
1.5458040246741835,0.05147942266474054,-0.1787442244313826,0.0,0.0,0.0,0.0,0.0,0.0,3.068797392625564
1.3631827201464908,0.05303599117766594,0.12002417299501705,0.0,0.0,0.0,0.0,0.0,0.0,3.0254579284760488
1.4168979147054919,0.0899407449294849,0.0669407958892405,0.0,0.0,0.0,0.0,0.0,0.0,4.580064684655978
1.4536051522499007,0.0866924983398828,-0.08494981458407937,0.0,0.0,0.0,0.0,0.0,0.0,2.2444679104844325
1.4226737374849245,-0.07297324323009101,-0.07004149932634952,0.0,0.0,0.0,0.0,0.0,0.0,4.389386523962946
1.5532826766941898,0.0781280361909179,-0.031233673346970747,0.0,0.0,0.0,0.0,0.0,0.0,3.466852298090059
1.3436952009430585,-0.03380230366395117,-0.11486382712414081,0.0,0.0,0.0,0.0,0.0,0.0,4.770023307268186
1.6045026451244893,-0.05986452181678989,0.10088744552676394,0.0,0.0,0.0,0.0,0.0,0.0,3.19289858344515
1.2361440699910098,0.07445666930264044,-0.022374105933220714,0.0,0.0,0.0,0.0,0.0,0.0,3.035963258796038
1.5485694136778714,0.11874455834058857,0.01811878210493661,0.0,0.0,0.0,0.0,0.0,0.0,3.522488429067503
1.612072085443918,-0.014214930228761694,0.12256389436978732,0.0,0.0,0.0,0.0,0.0,0.0,1.759904074855422
1.5163386507463545,-0.03430035979079319,0.04270595096569513,0.0,0.0,0.0,0.0,0.0,0.0,3.6365042903183813
1.5153891512444166,0.273016145199564,-0.18138116663445644,0.0,0.0,0.0,0.0,0.0,0.0,1.8627733376574718
1.5835832183859138,0.08440954928151345,0.08973868010488277,0.0,0.0,0.0,0.0,0.0,0.0,2.775407602877802
1.3844963911373904,0.013893772233628993,-0.17957849285055527,0.0,0.0,0.0,0.0,0.0,0.0,2.2306961673757746
1.388253482613222,0.15614155493373447,-0.1737556558293708,0.0,0.0,0.0,0.0,0.0,0.0,2.291090298850847
1.5172233656133778,0.027487229468275767,0.12927720005747056,0.0,0.0,0.0,0.0,0.0,0.0,3.622826079710977
1.6279458677292187,0.31418121594127124,-0.06022259185270601,0.0,0.0,0.0,0.0,0.0,0.0,3.0837513425442062
1.4867976715179625,-0.146506642857902,0.010023051020435454,0.0,0.0,0.0,0.0,0.0,0.0,3.6217629737366264
1.5537779070246738,-0.2291355015239832,-0.17113767987998985,0.0,0.0,0.0,0.0,0.0,0.0,3.2942039126235043
1.4783331327410885,0.13564988120001142,-0.12904304741947537,0.0,0.0,0.0,0.0,0.0,0.0,4.625994356043269
1.5709348543733082,0.08932920207865269,-0.03283132973661817,0.0,0.0,0.0,0.0,0.0,0.0,3.077703299378178
1.5592858963886074,-0.020581245209647544,-0.044973047510340106,0.0,0.0,0.0,0.0,0.0,0.0,2.9815929198096973
1.6625968194489678,0.02789608444058622,0.005840163150001975,0.0,0.0,0.0,0.0,0.0,0.0,2.2073891866565436
1.478013178851972,-0.06787303941152455,0.17209507969445154,0.0,0.0,0.0,0.0,0.0,0.0,3.9025656850653396
1.4055156754159872,0.029676529675425257,-0.004346385781510452,0.0,0.0,0.0,0.0,0.0,0.0,3.2214697075637218
1.2997053505168346,0.0778534499312295,0.09650975300771648,0.0,0.0,0.0,0.0,0.0,0.0,2.7722886907146664
1.3694823716181248,-0.08093472302029953,-0.08145096951013021,0.0,0.0,0.0,0.0,0.0,0.0,3.1559766037499943
1.4252410165630134,0.047785996565041226,0.1055130457642674,0.0,0.0,0.0,0.0,0.0,0.0,3.3658998237140816
1.6020531351689489,-0.004241570430967508,-0.02386370825674468,0.0,0.0,0.0,0.0,0.0,0.0,5.388485979280206
1.6028954058265208,0.04791359066170426,0.12652091568716473,0.0,0.0,0.0,0.0,0.0,0.0,3.6188392715889357
1.4369331697580245,-0.19093340984535967,-0.1363438801599963,0.0,0.0,0.0,0.0,0.0,0.0,3.161941323871333
1.6441991870666413,-0.02870758753725888,-0.04246410552521365,0.0,0.0,0.0,0.0,0.0,0.0,3.247287642344489
1.3788024876066467,0.006246711034209577,-0.07578636101354119,0.0,0.0,0.0,0.0,0.0,0.0,2.558488754519626
1.4553751534969581,-0.05790999274798243,0.12726454192281852,0.0,0.0,0.0,0.0,0.0,0.0,1.9290801916270128
1.4159183308661933,0.0340520790800549,0.07373675441077686,0.0,0.0,0.0,0.0,0.0,0.0,2.6095224641529264
1.4109360367974066,-0.004935687192195063,0.13667327581337232,0.0,0.0,0.0,0.0,0.0,0.0,2.7845075264227233
1.392670578452693,0.007425394904056051,-0.04535384564154424,0.0,0.0,0.0,0.0,0.0,0.0,2.059517987339418
1.5449012051499365,-0.009180474170222877,-0.10060207905568147,0.0,0.0,0.0,0.0,0.0,0.0,2.2943857674337913
1.506921006073677,-0.13334139099303563,0.16832499472718665,0.0,0.0,0.0,0.0,0.0,0.0,3.2475420906263426
1.5086684796229008,0.07151724300669826,0.1849631417383137,0.0,0.0,0.0,0.0,0.0,0.0,4.537201982423496
1.6171459001947526,0.12246858412099322,0.007641608991600739,0.0,0.0,0.0,0.0,0.0,0.0,2.1418873715516087
1.3799230481660143,-0.1628308678345553,0.061991807584223416,0.0,0.0,0.0,0.0,0.0,0.0,2.472350708099058
1.425504179952281,0.0059609470103374595,-0.05627982934704645,0.0,0.0,0.0,0.0,0.0,0.0,3.5892565616419287
1.2101156225993026,0.019413936965504412,0.05305929994827845,0.0,0.0,0.0,0.0,0.0,0.0,1.712601658970821
1.5003497697517347,0.18254409412323602,0.053274662977512315,0.0,0.0,0.0,0.0,0.0,0.0,3.370958446216157
1.5782709482964743,-0.006763237663279748,-0.1295155210216374,0.0,0.0,0.0,0.0,0.0,0.0,5.818315628518905
1.6419286717335517,-0.13981115337066094,-0.13238709795566592,0.0,0.0,0.0,0.0,0.0,0.0,3.264380838050853
1.4526341983772109,0.10742052197682568,0.23310440837800997,0.0,0.0,0.0,0.0,0.0,0.0,3.3967179575313375
1.4782297154150694,0.011611728410621865,0.0386460968472771,0.0,0.0,0.0,0.0,0.0,0.0,4.392648153674008
1.5224303030993116,-0.03325787787004649,-0.15231538805282707,0.0,0.0,0.0,0.0,0.0,0.0,4.11511201767407
1.5614565622274779,-0.05038754107238252,0.00858695018411586,0.0,0.0,0.0,0.0,0.0,0.0,5.033377211629132
1.396123086809251,-0.1303152161468632,-0.07692565713945233,0.0,0.0,0.0,0.0,0.0,0.0,3.3155202580410466
1.7535672718652853,0.05806822752085721,-0.16126865395821177,0.0,0.0,0.0,0.0,0.0,0.0,3.9594532889339105
1.6105851998877776,0.038035876348138216,0.047461289025409026,0.0,0.0,0.0,0.0,0.0,0.0,4.017024187062881
1.4238155108692239,0.04695849907232823,0.011001423710118953,0.0,0.0,0.0,0.0,0.0,0.0,2.2462051401843763
1.4643331928771166,-0.09239151158163328,0.055041709264323814,0.0,0.0,0.0,0.0,0.0,0.0,3.0730393091500154
1.457547553488886,0.0463027783589946,0.017515808242544697,0.0,0.0,0.0,0.0,0.0,0.0,3.1406088671030257
1.4322217594712656,-0.1418132634609074,0.004952030044032183,0.0,0.0,0.0,0.0,0.0,0.0,2.891479943502713
1.5060009185580305,0.06755302769903658,-0.053644752950217194,0.0,0.0,0.0,0.0,0.0,0.0,1.8449131356961441
1.66692899720912,-0.0953867004869633,0.09341221213166473,0.0,0.0,0.0,0.0,0.0,0.0,3.0180803115432804
1.3800068890875197,-0.04080965981399922,0.02838281461872952,0.0,0.0,0.0,0.0,0.0,0.0,3.0230983144163615
1.5671039482773714,-0.004781682144057314,-0.12409512127797201,0.0,0.0,0.0,0.0,0.0,0.0,3.0907238692053713
1.4702063137935817,-0.028305338194816676,-0.15096123978931686,0.0,0.0,0.0,0.0,0.0,0.0,2.8849607239158055
1.4970587535584958,-0.09660591486714046,-0.03853445367418433,0.0,0.0,0.0,0.0,0.0,0.0,1.339449578768566
1.4183633687322017,0.1308314369909702,0.0913787619618281,0.0,0.0,0.0,0.0,0.0,0.0,5.143134895847566
1.411650707059561,-0.08543876305462045,0.13065937487553433,0.0,0.0,0.0,0.0,0.0,0.0,2.273615876873917
1.5530484089197572,0.15335035268485256,0.06390085119566678,0.0,0.0,0.0,0.0,0.0,0.0,4.886653504229041
1.5031496887450446,-0.013609051807607476,-0.07810393421644485,0.0,0.0,0.0,0.0,0.0,0.0,2.2423214991964158
1.5047243006060942,0.01490787672790153,-0.05078290827182655,0.0,0.0,0.0,0.0,0.0,0.0,2.527067690904277
1.5401671059041802,0.03104625916003442,-0.15258367276606102,0.0,0.0,0.0,0.0,0.0,0.0,1.2900148489735077
1.4263839897418125,0.015423942507211555,-0.29560942014680136,0.0,0.0,0.0,0.0,0.0,0.0,3.3359068018963844
1.564829134766558,0.09517642255802942,0.13768072232382011,0.0,0.0,0.0,0.0,0.0,0.0,2.9568454106183837
1.4068893623239147,-0.11333840235975977,-0.08088124232715531,0.0,0.0,0.0,0.0,0.0,0.0,4.396034198308767
1.5479936369034581,-0.09968948987618015,-0.080349921818721,0.0,0.0,0.0,0.0,0.0,0.0,5.881962951934073
1.6077036322682003,-0.0865174671768234,-0.08616962990314947,0.0,0.0,0.0,0.0,0.0,0.0,2.4054568856791554
1.3448918269852859,0.0030356315667557326,-0.029758497203315477,0.0,0.0,0.0,0.0,0.0,0.0,3.5432941651941836
1.4202390977762067,-0.0843730911493979,-0.08379391685497467,0.0,0.0,0.0,0.0,0.0,0.0,2.9810022944234142
1.3882405478462734,-0.035549287661738684,0.19693814294687773,0.0,0.0,0.0,0.0,0.0,0.0,2.076757697139911
1.403374015378597,-0.0703827005592759,0.0631878357857056,0.0,0.0,0.0,0.0,0.0,0.0,2.0116620783660215
1.3949881675673652,0.04513030350844292,-0.08597461207980402,0.0,0.0,0.0,0.0,0.0,0.0,2.141496574165832
1.4609288405545238,-0.11768725362884212,0.12711388905998597,0.0,0.0,0.0,0.0,0.0,0.0,2.427321423405328
1.4994120127242494,-0.1746775848585167,-0.011862565579147819,0.0,0.0,0.0,0.0,0.0,0.0,5.056838844974797
1.4709791420218408,-0.044012174579424794,0.07052889875925848,0.0,0.0,0.0,0.0,0.0,0.0,3.3916864253766463
1.6136274900210652,-0.021457203551810616,-0.01686736335866255,0.0,0.0,0.0,0.0,0.0,0.0,4.829818826815517
1.6396606074002207,-0.2544189464717852,-0.060373968539986105,0.0,0.0,0.0,0.0,0.0,0.0,1.8406070395528595
1.5394433799276945,-0.16627877381788514,-0.060383224112426914,0.0,0.0,0.0,0.0,0.0,0.0,4.011455623521854
1.5924159025333229,0.12751624765480138,0.07215137662721716,0.0,0.0,0.0,0.0,0.0,0.0,1.6971894594411023
1.448616963524744,-0.09762844447316915,-0.08277343476609769,0.0,0.0,0.0,0.0,0.0,0.0,1.937874884007406
1.3892207091703406,-0.07947653124391624,-0.164964660808081,0.0,0.0,0.0,0.0,0.0,0.0,2.509672381130117
1.4917661987202795,0.041300810793498975,-0.02185976956839643,0.0,0.0,0.0,0.0,0.0,0.0,0.3542608517011734
1.5080187174803354,-0.11016874726915707,-0.014621731066022168,0.0,0.0,0.0,0.0,0.0,0.0,4.874893246515686
1.7145800806159974,0.08441543918490887,-0.018857397285242942,0.0,0.0,0.0,0.0,0.0,0.0,2.142065710486192
1.5576441600320459,-0.04017289389164925,-0.02856821528403064,0.0,0.0,0.0,0.0,0.0,0.0,3.9619933657237407
1.4240719286056491,-0.0878787073399933,0.10808068117027236,0.0,0.0,0.0,0.0,0.0,0.0,3.5172704511991313
1.5493534952012558,0.08580406945006219,-0.15939902000465078,0.0,0.0,0.0,0.0,0.0,0.0,1.6556355235545535
1.3597016159330626,-0.12954816581811085,-0.012731482461102717,0.0,0.0,0.0,0.0,0.0,0.0,3.5978445300872535
1.2879466750607882,0.054112092016950955,-0.021035043693060033,0.0,0.0,0.0,0.0,0.0,0.0,1.2900633043128866
1.4690068268701426,-0.018951451094983085,-0.10112885272673551,0.0,0.0,0.0,0.0,0.0,0.0,3.2215040205890735
1.4451277571372907,-0.1599817362799676,0.20080582127831648,0.0,0.0,0.0,0.0,0.0,0.0,4.156563139764452
1.3290860427291853,-0.09793460185472841,-0.06099125638462484,0.0,0.0,0.0,0.0,0.0,0.0,3.8783237764979934
1.5007158467337247,-0.029388727912995818,-0.00479533543731159,0.0,0.0,0.0,0.0,0.0,0.0,2.6514261079772123
1.5155841063590485,-0.11195186490906302,-0.02788253415605616,0.0,0.0,0.0,0.0,0.0,0.0,2.77790812070445
1.4271505977825778,0.028022858839226273,-0.003691566983339462,0.0,0.0,0.0,0.0,0.0,0.0,2.5640892777229345
1.2638293980577988,-0.14080911766464752,-0.01626941878076293,0.0,0.0,0.0,0.0,0.0,0.0,3.128520102501266
1.4246689931591767,0.14083682599656025,-0.030913064290139167,0.0,0.0,0.0,0.0,0.0,0.0,2.363385639402755
1.5059408700114287,0.027095202394634085,-0.030249977279159304,0.0,0.0,0.0,0.0,0.0,0.0,3.869984179639665
1.3112641453012557,-0.004004004643403158,-0.15197200232506144,0.0,0.0,0.0,0.0,0.0,0.0,2.899487837427001
1.4763619426189178,0.10499842779246893,0.017000390014633774,0.0,0.0,0.0,0.0,0.0,0.0,4.330021925305265
1.519214768276358,-0.06418571934706911,0.21876388946725256,0.0,0.0,0.0,0.0,0.0,0.0,3.6740816509928993
1.537192540074605,0.11449523349656054,-0.03182328193469915,0.0,0.0,0.0,0.0,0.0,0.0,1.270518791082563
1.4510525256860862,0.12494088447815783,0.02409667468368896,0.0,0.0,0.0,0.0,0.0,0.0,3.3313302508359075
1.4144730433510264,-0.19668625166472212,0.1252906617853833,0.0,0.0,0.0,0.0,0.0,0.0,4.987710221394148
1.5138496147948408,0.0039836906467779895,0.0647100336601472,0.0,0.0,0.0,0.0,0.0,0.0,3.8356605908308445
1.381564925853315,-0.1806955572918864,-0.021213127902932366,0.0,0.0,0.0,0.0,0.0,0.0,1.4131281625119392
1.3961153251611778,-0.04221773361592217,0.175525904565856,0.0,0.0,0.0,0.0,0.0,0.0,3.2867363902588225
1.3581923459190015,0.06613122436201824,0.07033875187510373,0.0,0.0,0.0,0.0,0.0,0.0,5.335818138504419
1.2326142671083367,-0.06074423602676089,-0.041266884746473415,0.0,0.0,0.0,0.0,0.0,0.0,3.033436681388681
1.4531064005025713,-0.0893553704845369,0.035813562812292046,0.0,0.0,0.0,0.0,0.0,0.0,4.171218137133612
1.5585981774057633,0.04122503362468813,0.17414483942423511,0.0,0.0,0.0,0.0,0.0,0.0,2.936888030542949
1.3367827647087938,0.07477632655906613,-0.17654921345153715,0.0,0.0,0.0,0.0,0.0,0.0,3.5211026159769205
1.5159292711312335,0.009734082271270957,-0.06544800032711737,0.0,0.0,0.0,0.0,0.0,0.0,0.9864309781311184
1.7665737961614476,-0.08884488319721046,0.2669441434300928,0.0,0.0,0.0,0.0,0.0,0.0,2.1872497135501856
1.4037351701375003,0.05360194155968372,0.1009708022590406,0.0,0.0,0.0,0.0,0.0,0.0,5.262598045456253
1.4541820671648926,-0.006792179943694145,0.013834509786417024,0.0,0.0,0.0,0.0,0.0,0.0,4.703367580327045
1.4363377124358605,0.01831270669299925,0.03274863134674939,0.0,0.0,0.0,0.0,0.0,0.0,2.7645778881380285
1.6713536011835708,-0.0982235298269811,0.14448688619775416,0.0,0.0,0.0,0.0,0.0,0.0,2.9048111394652705
1.4951622256838706,0.036455689741711816,-0.02264169982713664,0.0,0.0,0.0,0.0,0.0,0.0,1.9206074955838315
1.554997750884035,0.03678226309617517,0.02490710257173334,0.0,0.0,0.0,0.0,0.0,0.0,2.7669567680355027
1.5517130585660124,0.10048188267749354,-0.020414625057184433,0.0,0.0,0.0,0.0,0.0,0.0,1.3024222716592613
1.260378246481865,-0.09549168638711454,-0.0754856194145043,0.0,0.0,0.0,0.0,0.0,0.0,3.195056529921829
1.5178634472493058,0.003784981772552917,0.060892715798731324,0.0,0.0,0.0,0.0,0.0,0.0,4.035993257811124
1.4002565348811253,-0.08203802313930475,-0.04882626051801896,0.0,0.0,0.0,0.0,0.0,0.0,1.9498221552365351
1.5174273422399258,-0.16086606245860274,0.04732887314765516,0.0,0.0,0.0,0.0,0.0,0.0,4.503378144247562
1.4428578523592686,-0.03775113430612409,0.02858509880102883,0.0,0.0,0.0,0.0,0.0,0.0,3.038114274179533
1.6795062796784395,0.0587723397037187,0.1201068957989036,0.0,0.0,0.0,0.0,0.0,0.0,2.17818026371479
1.479777275111048,0.09056268983911275,0.09669114924713441,0.0,0.0,0.0,0.0,0.0,0.0,4.468320295083089
1.4180557705944512,-0.014767950458121293,-0.014849441340908901,0.0,0.0,0.0,0.0,0.0,0.0,5.035243363512303
1.4553135646275763,0.14697000767914514,0.042173410456472216,0.0,0.0,0.0,0.0,0.0,0.0,4.800578170149454
1.3440261181919222,-0.08954582721093185,0.11783423786950878,0.0,0.0,0.0,0.0,0.0,0.0,2.2174330573995955
1.5286974965560085,-0.014617123292971516,-0.16856746388029642,0.0,0.0,0.0,0.0,0.0,0.0,3.5482553430112165
1.6489879189322836,0.002566438764606146,-0.10266421528668741,0.0,0.0,0.0,0.0,0.0,0.0,1.851105823046387
1.5341449793120365,0.03687947654393405,-0.07649801881895013,0.0,0.0,0.0,0.0,0.0,0.0,1.9959453156973888
1.4383028255460022,-0.0007067123890996224,-0.11361678140272258,0.0,0.0,0.0,0.0,0.0,0.0,2.7444794679243696
1.4932586313321787,0.09673195989505527,-0.10630338227881493,0.0,0.0,0.0,0.0,0.0,0.0,1.8682047632124381
1.5731475669656148,0.055619624727693454,-0.00623534991473717,0.0,0.0,0.0,0.0,0.0,0.0,2.5145662717646937
1.5235134232198069,0.13973670825146906,0.02327778647329472,0.0,0.0,0.0,0.0,0.0,0.0,2.4641772018129835
1.4141502213115116,0.14463275889260488,-0.017784902550517772,0.0,0.0,0.0,0.0,0.0,0.0,4.207937335780059
1.5408453420522372,-0.29981619212545996,-0.1732769501935328,0.0,0.0,0.0,0.0,0.0,0.0,4.316456826344482
1.4941341283186362,-0.04272752469320083,0.05550461364517974,0.0,0.0,0.0,0.0,0.0,0.0,3.5055690836811255
1.4527079664370133,0.022496767366488892,-0.1523204387428898,0.0,0.0,0.0,0.0,0.0,0.0,3.7367060502847065
1.4770651403114718,-0.12897178913582458,0.12399504837202971,0.0,0.0,0.0,0.0,0.0,0.0,2.142775407657874
1.5442516717041208,0.03757134033200947,-0.1379831617518539,0.0,0.0,0.0,0.0,0.0,0.0,4.971659112149942
1.5671837636382586,0.17158409312818843,0.03616233452192406,0.0,0.0,0.0,0.0,0.0,0.0,2.9974396068720073
1.6832082553288252,-0.07002906471996533,-0.1464295982386817,0.0,0.0,0.0,0.0,0.0,0.0,3.69312884732271
1.4663683000513674,-0.08037999410848297,-0.11617732587833805,0.0,0.0,0.0,0.0,0.0,0.0,0.7524107697809712
1.5350052386879038,0.036701187838974865,-0.021522207584803714,0.0,0.0,0.0,0.0,0.0,0.0,0.8158668830777921
1.5012724806143314,-0.15329357802611798,-0.10856955596291425,0.0,0.0,0.0,0.0,0.0,0.0,2.5487083841557596
1.543658637623896,-0.07383615874960918,-0.08005384492263859,0.0,0.0,0.0,0.0,0.0,0.0,1.0922070991458859
1.2574407775588874,0.14576779810983687,-0.07464785226018394,0.0,0.0,0.0,0.0,0.0,0.0,3.017521587357581
1.484203684719593,0.1279404610676763,0.1565858810268248,0.0,0.0,0.0,0.0,0.0,0.0,2.738016938943386
1.5182136039935277,0.013108378894402695,-0.195195111294463,0.0,0.0,0.0,0.0,0.0,0.0,1.1292607458172752
1.6184621892188529,0.3209101472684992,-0.1477532522225665,0.0,0.0,0.0,0.0,0.0,0.0,2.692073317337421
1.399304734520586,-0.11172814762652233,0.02795448526627763,0.0,0.0,0.0,0.0,0.0,0.0,1.5147381525990387
1.62981604406165,-0.08627778712445824,-0.022329899295968958,0.0,0.0,0.0,0.0,0.0,0.0,5.2777322875445885
1.4338220768417924,-0.06438301932487647,0.02243150214631671,0.0,0.0,0.0,0.0,0.0,0.0,3.8931794074597175
1.4359478923476503,-0.05639195331009215,0.1188442397341998,0.0,0.0,0.0,0.0,0.0,0.0,4.359369801252162
1.5539700037531228,0.12291894968689317,0.04945904960664174,0.0,0.0,0.0,0.0,0.0,0.0,4.601915494436395
1.3029949386092992,0.10371902678213725,0.049075622963809566,0.0,0.0,0.0,0.0,0.0,0.0,2.791148760529572
1.473928984710198,0.16785188188397582,0.09330742636080995,0.0,0.0,0.0,0.0,0.0,0.0,2.2926574103898325
1.3812711508571334,0.13575461314606047,-0.040632128917931706,0.0,0.0,0.0,0.0,0.0,0.0,3.06320032980385
1.4414565792244314,-0.05741669526074673,-0.0023138173662801014,0.0,0.0,0.0,0.0,0.0,0.0,2.21681306974259
1.5007427777070101,-0.013010457773428831,0.03215727634747488,0.0,0.0,0.0,0.0,0.0,0.0,2.346656016995898
1.3070551067187015,0.09177933866299233,0.026454166074302395,0.0,0.0,0.0,0.0,0.0,0.0,4.601187476314134
1.6175911751579637,-0.04868351370007583,-0.026060760239961497,0.0,0.0,0.0,0.0,0.0,0.0,0.9860504436429798
1.5384146652511794,0.13377620529965314,0.1315507700275381,0.0,0.0,0.0,0.0,0.0,0.0,3.802144835069264
1.3967038119258302,-0.06366556009609492,-0.060283910442749056,0.0,0.0,0.0,0.0,0.0,0.0,2.3053468245484052
1.6033720762119987,0.1503042359205788,0.09770576182660257,0.0,0.0,0.0,0.0,0.0,0.0,4.3431264421767
1.5169387523384068,0.05308616541807886,0.033895516267022585,0.0,0.0,0.0,0.0,0.0,0.0,2.953530729148551
1.430583840965748,-0.1638571310326125,0.07941295859393882,0.0,0.0,0.0,0.0,0.0,0.0,2.0828217066892676
1.6935464866248429,-0.043532518174743025,-0.1831520276109914,0.0,0.0,0.0,0.0,0.0,0.0,2.7916922562208715
1.5440973772358402,-0.07324282318884992,-0.1202406962497366,0.0,0.0,0.0,0.0,0.0,0.0,1.1430634226333622
1.5464770306696245,-0.0004444808199121977,-0.054984853752435274,0.0,0.0,0.0,0.0,0.0,0.0,4.0731963123803885
1.5629988466075981,-0.06731982359881598,-0.06566133953406383,0.0,0.0,0.0,0.0,0.0,0.0,4.25424653039511
1.4216781377342478,0.1839636158402226,0.12668379470586952,0.0,0.0,0.0,0.0,0.0,0.0,3.4420609332048424
1.5158445690611264,0.15172289521738425,0.09591543327224913,0.0,0.0,0.0,0.0,0.0,0.0,5.904345603931057
1.4032452295305502,0.003958836142231967,-0.028538609344999934,0.0,0.0,0.0,0.0,0.0,0.0,2.3346915559979986
1.567430207974303,-0.032366044490633177,-0.07098891441693728,0.0,0.0,0.0,0.0,0.0,0.0,5.473124699389495
1.4996633812032203,-0.007380574549279752,-0.019682764452277825,0.0,0.0,0.0,0.0,0.0,0.0,4.343320444347921
1.513816450345255,-0.02103040609153369,0.1456575306402109,0.0,0.0,0.0,0.0,0.0,0.0,5.102918638129156
1.4241193534552639,-0.07025543255521058,0.14855791264412013,0.0,0.0,0.0,0.0,0.0,0.0,2.9552485359539635
1.5876380717765006,-0.10781361610881944,-0.11197591416497471,0.0,0.0,0.0,0.0,0.0,0.0,2.3301126556203706
1.2944822175617383,-0.07185294116216881,0.11770484406119233,0.0,0.0,0.0,0.0,0.0,0.0,5.625672302571134
1.46341238886212,-0.05743623305558872,-0.25129000615850067,0.0,0.0,0.0,0.0,0.0,0.0,1.066547405989981
1.599048615069225,-0.08048276673820416,-0.013123818278318154,0.0,0.0,0.0,0.0,0.0,0.0,4.361298487580536
1.3362348149962058,0.050999148399371336,-0.012329722193603503,0.0,0.0,0.0,0.0,0.0,0.0,4.693443176854001
1.5485538198941402,-0.13230308713590844,-0.03601772370940059,0.0,0.0,0.0,0.0,0.0,0.0,2.6706311455404728
1.3613635281268353,-0.08731117367923359,-0.07442041746009595,0.0,0.0,0.0,0.0,0.0,0.0,1.553996778766941
1.523327386147185,0.13386779080639966,0.0499907474473487,0.0,0.0,0.0,0.0,0.0,0.0,0.38809211657017795
1.4885747980565824,0.0293163056685267,0.027512476963083322,0.0,0.0,0.0,0.0,0.0,0.0,5.400147017885531
1.4779196447064595,-0.14287716754645788,-0.11589002918772347,0.0,0.0,0.0,0.0,0.0,0.0,3.3741377239124963
1.468234034098479,-0.08317514453909935,-0.0658588222406845,0.0,0.0,0.0,0.0,0.0,0.0,4.037374219350524
1.397551524691664,0.027143359482065327,-0.028115848295366792,0.0,0.0,0.0,0.0,0.0,0.0,4.692178336879786
1.5354649472650472,-0.011311629706382142,0.04055177169217655,0.0,0.0,0.0,0.0,0.0,0.0,2.913389964313683
1.4397967520599133,0.07906593885950226,0.04654051723590739,0.0,0.0,0.0,0.0,0.0,0.0,1.3913115971741572
1.7287816875216466,-0.025792567433843908,0.09919600129238645,0.0,0.0,0.0,0.0,0.0,0.0,3.9460563442990266
1.4015561969170331,0.09523668673590252,0.012207893144196824,0.0,0.0,0.0,0.0,0.0,0.0,1.4281709583045175
1.2770014528441385,-0.004782454250171975,0.14779392517228093,0.0,0.0,0.0,0.0,0.0,0.0,3.109888643733079
1.6904017979687376,-0.02571880645777601,0.19086000102566733,0.0,0.0,0.0,0.0,0.0,0.0,3.5093543401512335
1.3939905719374894,-0.04285846763714801,-0.15082738621443445,0.0,0.0,0.0,0.0,0.0,0.0,0.1609312617686725
1.3522278086988622,-0.10479319374232265,-0.03437921352611373,0.0,0.0,0.0,0.0,0.0,0.0,3.222933900941746
1.3918585104320431,-0.09570745448426617,0.06247439485872869,0.0,0.0,0.0,0.0,0.0,0.0,3.6284688988001386
1.4916741828766984,0.13270523827719458,-0.036310016173377986,0.0,0.0,0.0,0.0,0.0,0.0,0.488336600191432
1.375215405793111,-0.03268168025386739,-0.10633363111052795,0.0,0.0,0.0,0.0,0.0,0.0,3.9242646918280064
1.460722178922345,0.07017172665327402,-0.10089533996166947,0.0,0.0,0.0,0.0,0.0,0.0,1.685464424146008
1.4590753604876865,0.10223041017919206,-0.03641078224118324,0.0,0.0,0.0,0.0,0.0,0.0,2.6203191400206967
1.6084517570017518,0.12279231787727292,0.19740532661498789,0.0,0.0,0.0,0.0,0.0,0.0,2.127413604071473
1.507712878185869,-0.10957457880586972,0.0352584780343153,0.0,0.0,0.0,0.0,0.0,0.0,3.708177518769565
1.521284547367772,-0.03590242298035263,-0.09717180955302872,0.0,0.0,0.0,0.0,0.0,0.0,3.5289436692130094
1.464589462111357,-0.04399317234302468,0.13172117318500204,0.0,0.0,0.0,0.0,0.0,0.0,2.422691553740104
1.6543181084986296,0.0037499966200595274,0.04659909095196766,0.0,0.0,0.0,0.0,0.0,0.0,4.2980919376945055
1.5099797650997444,-0.08083179857230312,0.199627671609918,0.0,0.0,0.0,0.0,0.0,0.0,3.0206162963816214
1.6068470659615945,0.08223214622141375,0.05250636780232685,0.0,0.0,0.0,0.0,0.0,0.0,2.432426526809301
1.5694477209115278,-0.1487538762287842,-0.0227204438642217,0.0,0.0,0.0,0.0,0.0,0.0,3.5245590747202344
1.4313047761837892,-0.02701925594952827,-0.02720718539641115,0.0,0.0,0.0,0.0,0.0,0.0,1.5400227554050085
1.4557459739558938,-0.14468680580042684,0.0765096159281165,0.0,0.0,0.0,0.0,0.0,0.0,2.643167031532542
1.4407877173351253,-0.028128175886664872,0.13435365058419374,0.0,0.0,0.0,0.0,0.0,0.0,1.3986929790629825
1.385888491179979,0.030577877056967698,-0.028782736234013673,0.0,0.0,0.0,0.0,0.0,0.0,5.076317207260642
1.4155421919320914,0.05302984637372389,-0.12156636382307269,0.0,0.0,0.0,0.0,0.0,0.0,3.918098670579087
1.450351318644447,-0.1234991404068627,0.11859180114826551,0.0,0.0,0.0,0.0,0.0,0.0,3.0935359074297497
1.5198619572280687,-0.15427342975138447,-0.055224680339140186,0.0,0.0,0.0,0.0,0.0,0.0,1.887612793377882
1.3518120613540359,0.14211405398296814,0.27936475777188546,0.0,0.0,0.0,0.0,0.0,0.0,3.4527995286865014
1.5460076743898887,0.12385428915827004,-0.18987730477717102,0.0,0.0,0.0,0.0,0.0,0.0,5.539780329820535
1.4065774369667208,0.07619174076149837,-0.21019396161219414,0.0,0.0,0.0,0.0,0.0,0.0,1.3840135796954012
1.416263064203347,-0.294131329153427,0.148781499831526,0.0,0.0,0.0,0.0,0.0,0.0,5.399034631855583
1.429196246490813,-0.06691040584621795,-0.15290446110585432,0.0,0.0,0.0,0.0,0.0,0.0,5.6894833560783225
1.5207714983332734,0.17524699804587673,0.11073724849220408,0.0,0.0,0.0,0.0,0.0,0.0,1.6133336224559718
1.4635634976806797,-0.1755758860553599,-0.04145321965117285,0.0,0.0,0.0,0.0,0.0,0.0,1.5095974487105637
1.6752996939510965,0.0537331874337561,-0.05078162707083267,0.0,0.0,0.0,0.0,0.0,0.0,1.2177033955557444
1.539086583086071,-0.03361467432822627,-0.0313701446949082,0.0,0.0,0.0,0.0,0.0,0.0,2.29028309457363
1.6210877480174002,0.25326072541659156,0.1144719300503994,0.0,0.0,0.0,0.0,0.0,0.0,4.085016700777563
1.5218068934633304,0.0029429595095631215,-0.0170904146484907,0.0,0.0,0.0,0.0,0.0,0.0,4.817701301642279
1.3895547215545767,0.06722480056541068,-0.04601296199832962,0.0,0.0,0.0,0.0,0.0,0.0,2.860598136446298
1.5122469812104744,0.07626593136216814,-0.2214838186529905,0.0,0.0,0.0,0.0,0.0,0.0,2.9982192630688655
1.5526836194889997,0.0001997010700073851,0.000889079210466218,0.0,0.0,0.0,0.0,0.0,0.0,3.5186470067197
1.4043159256830269,0.019196656502208975,-0.25558667780897876,0.0,0.0,0.0,0.0,0.0,0.0,2.784953619992879
1.6021600794788466,0.08162225810493773,0.13404769732245747,0.0,0.0,0.0,0.0,0.0,0.0,1.692522843492954
1.3705820363879404,0.1614579753811034,-0.09964591794610615,0.0,0.0,0.0,0.0,0.0,0.0,2.9564197466417665
1.556594635776146,-0.17991213023384356,-0.010058918284354035,0.0,0.0,0.0,0.0,0.0,0.0,4.360554825517894
1.4885281436764566,0.07436887514661594,-0.15703408833104374,0.0,0.0,0.0,0.0,0.0,0.0,4.020359891133806
1.5910705215195111,-0.12008998723361722,0.0686151947440574,0.0,0.0,0.0,0.0,0.0,0.0,4.2290851317368645
1.5885589526250554,0.16314079327893483,0.08556958801427832,0.0,0.0,0.0,0.0,0.0,0.0,3.768978359621325
1.3902252950655984,0.01557920836292458,0.144315562483899,0.0,0.0,0.0,0.0,0.0,0.0,2.510843785243805
1.4847028352110625,-0.2184799267830636,0.06876180408888702,0.0,0.0,0.0,0.0,0.0,0.0,1.5354854772489204
1.6365671544216063,0.028140710367453605,0.00413388033410124,0.0,0.0,0.0,0.0,0.0,0.0,2.964449759520906
1.3823402844274328,0.04419844224828867,0.06959341605730603,0.0,0.0,0.0,0.0,0.0,0.0,2.599482714454397
1.6505609834454964,0.17851125478356433,0.030412247998270234,0.0,0.0,0.0,0.0,0.0,0.0,1.9807504580406474
1.5681517851577993,-0.043890195469794724,-0.18397394778817147,0.0,0.0,0.0,0.0,0.0,0.0,3.500810771432429
1.484341941318272,0.1238347783199214,-0.06031844159102389,0.0,0.0,0.0,0.0,0.0,0.0,0.7342872254757814
1.360071727883399,-0.08993586920095786,-0.09240437317150155,0.0,0.0,0.0,0.0,0.0,0.0,2.714261704964781
1.429244034988655,-0.10861887401967865,-0.07522644363362148,0.0,0.0,0.0,0.0,0.0,0.0,1.7238352559783436
1.6041199086845186,-0.10439348509193372,0.017179456161710054,0.0,0.0,0.0,0.0,0.0,0.0,3.698680979020493
1.3708703569059777,-0.004981986765760575,-0.21345964926260674,0.0,0.0,0.0,0.0,0.0,0.0,2.3366179254185795
1.4580019209822748,-0.07315765183747418,-0.0060301714420949145,0.0,0.0,0.0,0.0,0.0,0.0,3.7001743942346605
1.51132237113151,0.005220896295011858,0.14875826353793115,0.0,0.0,0.0,0.0,0.0,0.0,2.5228965943901454
1.426919806122409,0.03654413436021218,-0.08594619856702007,0.0,0.0,0.0,0.0,0.0,0.0,2.0222296580872845
1.6881767119404216,-0.23176127992341083,0.0639245145749309,0.0,0.0,0.0,0.0,0.0,0.0,2.7176076545159193
1.5561474549564884,0.04029798013319302,0.0488274021640518,0.0,0.0,0.0,0.0,0.0,0.0,3.4552691797567765
1.4977358087871935,0.16294401402329406,-0.03558083697450701,0.0,0.0,0.0,0.0,0.0,0.0,3.5765029953030893
1.5876332625142342,-0.12011439227141084,0.246979591048552,0.0,0.0,0.0,0.0,0.0,0.0,2.990943470463401
1.5442688115698875,0.029449188684385744,-0.07308002187466542,0.0,0.0,0.0,0.0,0.0,0.0,3.4351506138489
1.4222492370935855,0.044061155831985443,-0.01093462568160672,0.0,0.0,0.0,0.0,0.0,0.0,4.209042773332569
1.3145091303615477,-0.10698215308104449,0.009019432823809423,0.0,0.0,0.0,0.0,0.0,0.0,2.8450058775804803
1.416674000024022,0.03132657913628048,0.09950356464983862,0.0,0.0,0.0,0.0,0.0,0.0,2.510543808480426
1.4781095324117839,-0.0756394080012262,0.07215939818509697,0.0,0.0,0.0,0.0,0.0,0.0,2.327200877326173
1.5980336120206031,-0.003745804604061643,-0.09333288896419156,0.0,0.0,0.0,0.0,0.0,0.0,3.8412443391383637
1.523455833055537,-0.043249223822210685,-0.1385771889374325,0.0,0.0,0.0,0.0,0.0,0.0,2.6730945633786876
1.5363844939279976,-0.09667727944593675,0.17585295836417253,0.0,0.0,0.0,0.0,0.0,0.0,2.159056661211628
1.5033332861564341,0.1739876826511108,0.09616726271801412,0.0,0.0,0.0,0.0,0.0,0.0,2.882681081129286
1.2493636580349738,-0.06558200231516169,-0.2602430126771192,0.0,0.0,0.0,0.0,0.0,0.0,3.237913749333393
1.2570919253056299,0.09197397469004731,0.12505616332556704,0.0,0.0,0.0,0.0,0.0,0.0,4.6196905170800875
1.317710449230964,-0.0464454725209584,-0.14855026446935393,0.0,0.0,0.0,0.0,0.0,0.0,1.138209418067038
1.423160013314455,0.21790883789313742,-0.053889461742171234,0.0,0.0,0.0,0.0,0.0,0.0,4.880639800412545
1.443688316242573,-0.003919117961654442,-0.010092894331427198,0.0,0.0,0.0,0.0,0.0,0.0,1.4467008758994255
1.4199039433969174,-0.1636089091408227,-0.09926354970647362,0.0,0.0,0.0,0.0,0.0,0.0,3.900701265633591
1.6461977735725364,-0.07847283690659529,-0.04198090644630112,0.0,0.0,0.0,0.0,0.0,0.0,4.076282801018702
1.471758219486915,-0.00434843639736502,0.12844931661017553,0.0,0.0,0.0,0.0,0.0,0.0,1.8195884604712673
1.465913326201903,-0.016210557860772395,-0.12642534328693494,0.0,0.0,0.0,0.0,0.0,0.0,2.4808577031493853
1.6247014347956727,0.12340909091003163,0.020042422467345795,0.0,0.0,0.0,0.0,0.0,0.0,3.664958036609224
1.632281774505481,0.14653108366991624,-0.05574581911362341,0.0,0.0,0.0,0.0,0.0,0.0,2.192500966556465
1.3208546651469457,0.08090149388820368,-0.07055553184708412,0.0,0.0,0.0,0.0,0.0,0.0,4.578618091582316
1.5169962299152062,0.09685487562425098,-0.13412069792740203,0.0,0.0,0.0,0.0,0.0,0.0,2.9703653055653327
1.3831130493422634,-0.05504095399812399,0.07301550389209525,0.0,0.0,0.0,0.0,0.0,0.0,3.1483097086060825
1.531916243451774,-0.03162293969161116,0.005194504377576005,0.0,0.0,0.0,0.0,0.0,0.0,4.381507264005361
1.3737822134116426,-0.015392342900129983,0.20015208340468452,0.0,0.0,0.0,0.0,0.0,0.0,5.4591596413583545
1.4825063384968256,-0.12319158721297196,0.19960593495810275,0.0,0.0,0.0,0.0,0.0,0.0,5.488012864929743
1.413028403657562,-0.04406093521884584,-0.11588891992799331,0.0,0.0,0.0,0.0,0.0,0.0,4.62951192667864
1.4903691878814596,0.14372371670922723,-0.08286809729013359,0.0,0.0,0.0,0.0,0.0,0.0,2.7086111088240052
1.4342725428668555,0.061820688666652225,-0.02708903416664646,0.0,0.0,0.0,0.0,0.0,0.0,1.9072395547447725
1.2430933302053144,-0.01047106175203618,0.20569006170367912,0.0,0.0,0.0,0.0,0.0,0.0,3.0315914576899674
1.4249398619749198,-0.1256037774260714,0.1152163719286165,0.0,0.0,0.0,0.0,0.0,0.0,3.4816011584256192
1.6743414960423149,0.08984377778294796,-0.011733434554986598,0.0,0.0,0.0,0.0,0.0,0.0,4.392830311027822
1.390295906374653,-0.10890633413442363,0.04168042927505424,0.0,0.0,0.0,0.0,0.0,0.0,5.811639988309371
1.655989388298419,0.07165185891908135,0.1441197202465702,0.0,0.0,0.0,0.0,0.0,0.0,1.5554486450557907
1.6045343311088238,0.09281690396937779,-0.0645567199868478,0.0,0.0,0.0,0.0,0.0,0.0,2.6517197759210434
1.5297946852584474,0.02080223831564054,0.06549024132964248,0.0,0.0,0.0,0.0,0.0,0.0,3.0070756991307674
1.288739591304105,0.03886441912227891,0.05289413333409093,0.0,0.0,0.0,0.0,0.0,0.0,3.0095970426489065
1.651561348592644,-0.1365895904576683,-0.04956051850143711,0.0,0.0,0.0,0.0,0.0,0.0,4.401370862677314
1.5307406632441014,0.015148580377849455,-0.03811515273901403,0.0,0.0,0.0,0.0,0.0,0.0,3.4631869034394653
1.5110301070434229,0.045381035467439816,0.17291877692733662,0.0,0.0,0.0,0.0,0.0,0.0,4.153844567914156
1.3760388415664668,-0.17211376237928477,0.013707185054126087,0.0,0.0,0.0,0.0,0.0,0.0,2.5840931231748234
1.35321987795463,0.03434055454566658,0.3062271650617039,0.0,0.0,0.0,0.0,0.0,0.0,0.6859940360301018
1.5465622003666022,-0.11982965474506962,-0.061994769739670746,0.0,0.0,0.0,0.0,0.0,0.0,2.9440999245576203
1.3397610843966363,-0.06479368515635346,0.167073710420829,0.0,0.0,0.0,0.0,0.0,0.0,1.7254216331602392
1.5142835478170884,0.028753931895600854,0.055511956663902066,0.0,0.0,0.0,0.0,0.0,0.0,2.1714397463225774
1.5234980733020411,0.05979888701471031,-0.06135189656882595,0.0,0.0,0.0,0.0,0.0,0.0,2.4464372748226575
1.5491294681558876,-0.15681261412828879,-0.199386972526125,0.0,0.0,0.0,0.0,0.0,0.0,3.3454382923599004
1.467074175343846,-0.07939318370726768,-0.14758723891974868,0.0,0.0,0.0,0.0,0.0,0.0,4.38510278743965
1.5770453140436866,0.026041534643526126,0.08558919098134042,0.0,0.0,0.0,0.0,0.0,0.0,4.093234690553304
1.450977026328984,-0.04196250350085677,-0.06706659988222945,0.0,0.0,0.0,0.0,0.0,0.0,3.585494737978752
1.4993355896958867,0.057879681732137346,0.03202698396230788,0.0,0.0,0.0,0.0,0.0,0.0,0.41394566642827324
1.4643427482693256,-0.10441920744952987,-0.050277736613760705,0.0,0.0,0.0,0.0,0.0,0.0,4.032013721809426
1.4185629775972257,0.10618112505326596,-0.14393720905557744,0.0,0.0,0.0,0.0,0.0,0.0,4.636929965102467
1.4343095079558592,-0.06269691517893126,-0.2903698878749934,0.0,0.0,0.0,0.0,0.0,0.0,1.031699054102101
1.3594940619944063,0.07125048499284031,0.09518606986196838,0.0,0.0,0.0,0.0,0.0,0.0,3.563910815985695
1.5473503423700745,0.11840660618984629,0.03431056680830102,0.0,0.0,0.0,0.0,0.0,0.0,1.9674304484228209
1.5734051298838803,-0.1355256809325418,-0.06459759383859973,0.0,0.0,0.0,0.0,0.0,0.0,2.610075931405949
1.6365366482569246,0.04902203857209306,0.011136372270465173,0.0,0.0,0.0,0.0,0.0,0.0,1.7502086497017502
1.5091432562245246,-0.05987710220596918,-0.06915672597517054,0.0,0.0,0.0,0.0,0.0,0.0,1.004978576319995
1.4577202947056338,0.08996156470280413,0.009707471273522526,0.0,0.0,0.0,0.0,0.0,0.0,2.397109435647513
1.4070742208745939,-0.04095428085849501,-0.0003235747136365601,0.0,0.0,0.0,0.0,0.0,0.0,3.4008122902885662
1.5105665473289989,0.045200072263329755,-0.1183752302081655,0.0,0.0,0.0,0.0,0.0,0.0,3.4081026153801433
1.5721340920210423,-0.14836609294437983,0.06851081217882521,0.0,0.0,0.0,0.0,0.0,0.0,3.2637805292978546
1.5706701850646423,-0.016106939696642033,-0.020696926449494394,0.0,0.0,0.0,0.0,0.0,0.0,4.649522415669084
1.5717125363993634,0.24615217551102364,-0.07952106037129367,0.0,0.0,0.0,0.0,0.0,0.0,0.8776865205336463
1.424151332995926,-0.020924686891531485,0.10041571117165604,0.0,0.0,0.0,0.0,0.0,0.0,3.7799544046004576
1.3692679142269892,0.13406220429817584,-3.125370846381355e-05,0.0,0.0,0.0,0.0,0.0,0.0,2.9588356887884006
1.559023405424099,0.06699028637684369,0.2502752100990639,0.0,0.0,0.0,0.0,0.0,0.0,2.923978169111053
1.4579533414765864,0.016372728312545354,0.11454921441128807,0.0,0.0,0.0,0.0,0.0,0.0,3.561484986840356
1.6078371776616425,0.0827489642344913,-0.024877332200002863,0.0,0.0,0.0,0.0,0.0,0.0,1.7378930234925156
1.5574445895979436,-0.05291925460081366,-0.11748331938128163,0.0,0.0,0.0,0.0,0.0,0.0,1.0068163382263897
1.6946277948634076,-0.12556617448146254,-0.09321494215513505,0.0,0.0,0.0,0.0,0.0,0.0,3.5822349687085384
1.6032045212761665,-0.025675902888215158,0.084964493873064,0.0,0.0,0.0,0.0,0.0,0.0,2.3645451139367237
1.6548702809651026,0.07481605001634149,-0.010927735827153121,0.0,0.0,0.0,0.0,0.0,0.0,4.313252475087759
1.5916908769148386,0.1713798397488261,-0.23921027662691602,0.0,0.0,0.0,0.0,0.0,0.0,2.885887989630808
1.4569440885361753,0.0420548561391345,-0.15319133160479811,0.0,0.0,0.0,0.0,0.0,0.0,1.3871673938669982
1.591137001000399,0.07028450690493425,-0.07075647284626364,0.0,0.0,0.0,0.0,0.0,0.0,3.476161024140838
1.4741526123832511,0.09363207193082328,-0.08855825093748151,0.0,0.0,0.0,0.0,0.0,0.0,4.2202893776519765
1.372878433087892,0.12158576691602224,-0.09280008514919019,0.0,0.0,0.0,0.0,0.0,0.0,2.5401373731916124
1.491045693426853,0.27511638635549035,-0.029347815318997012,0.0,0.0,0.0,0.0,0.0,0.0,2.5324425417354415
1.4418572724859915,0.03135406739335336,-0.25726240107810894,0.0,0.0,0.0,0.0,0.0,0.0,1.8335164173894274
1.587138378982498,-0.021222144341127448,-0.11318717341244995,0.0,0.0,0.0,0.0,0.0,0.0,1.970555851207639
1.5736155037767505,-0.0699658103476485,0.03233804010615726,0.0,0.0,0.0,0.0,0.0,0.0,4.362737536291043
1.4926414943615953,0.028928368708468367,0.051397749788405035,0.0,0.0,0.0,0.0,0.0,0.0,3.988789766117719
1.4685325282758812,-0.023102999058943103,0.018151283620396228,0.0,0.0,0.0,0.0,0.0,0.0,4.622428492114631
1.5692850241561682,-0.010517434775238694,-0.06763799159427386,0.0,0.0,0.0,0.0,0.0,0.0,1.1000846469513423
1.553714144509653,0.0539699987819956,-0.05578306147644307,0.0,0.0,0.0,0.0,0.0,0.0,3.6048740085030153
1.5236013530570909,-0.0447585223859526,0.045881796511412505,0.0,0.0,0.0,0.0,0.0,0.0,3.0867954304110667
1.4832371760096896,-0.10986478036721258,-0.03682751629683804,0.0,0.0,0.0,0.0,0.0,0.0,4.812459506129191
1.7159151129034154,-0.04175201632921572,0.02990245806028883,0.0,0.0,0.0,0.0,0.0,0.0,3.407033956680168
1.4275255062039824,-0.07339051192298918,-0.1265970356833918,0.0,0.0,0.0,0.0,0.0,0.0,5.174584513346468
1.4554290100588165,0.11013620257630422,0.07838654657660686,0.0,0.0,0.0,0.0,0.0,0.0,4.617902432389406
1.4191275865684168,0.14622522028914106,-0.013982762757840515,0.0,0.0,0.0,0.0,0.0,0.0,1.1980423245955072
1.5595810573319537,0.08381950880992516,0.08665779750284015,0.0,0.0,0.0,0.0,0.0,0.0,4.171092550372921
1.4476931288797215,0.1722930981421389,0.10641411261945943,0.0,0.0,0.0,0.0,0.0,0.0,3.99107271462351
1.3359997893872766,0.2181188895058751,-0.07331838894609095,0.0,0.0,0.0,0.0,0.0,0.0,4.588088893918552
1.358248078475396,-0.03505756074632149,-0.1350008467269026,0.0,0.0,0.0,0.0,0.0,0.0,2.4010441557001503
1.4316395361067658,-0.009679420068937308,0.06390990211847952,0.0,0.0,0.0,0.0,0.0,0.0,4.849951124131183
1.3378200555930166,-0.1148257476105063,-0.06415256159697878,0.0,0.0,0.0,0.0,0.0,0.0,4.184726012659224
1.3979864412366145,0.03425597087038148,0.10762354117312625,0.0,0.0,0.0,0.0,0.0,0.0,2.58411392363112
1.560496118816208,0.048346762375221536,-0.12873250123941726,0.0,0.0,0.0,0.0,0.0,0.0,3.2335551850889153
1.3832656700848887,0.15326372527861415,0.08807563931261919,0.0,0.0,0.0,0.0,0.0,0.0,3.390474679510665
1.5488003058199387,-0.07289249573477873,0.23994071632897873,0.0,0.0,0.0,0.0,0.0,0.0,5.428900333218782
1.4749990507362103,-0.06958626177595466,0.09892450121246729,0.0,0.0,0.0,0.0,0.0,0.0,3.3697285877262
1.5163059364144196,0.009255135289277931,0.1093010221772425,0.0,0.0,0.0,0.0,0.0,0.0,5.445436908121564
1.48272762333082,-0.07975698761816091,0.12278942298158908,0.0,0.0,0.0,0.0,0.0,0.0,4.382585379661508
1.5853465295850961,-0.0006616223154597974,-0.20158543882560395,0.0,0.0,0.0,0.0,0.0,0.0,3.717122081632856
1.5435193820352355,-0.023197208770366094,-0.02290804376290807,0.0,0.0,0.0,0.0,0.0,0.0,3.747685850457872
1.4723824649439112,-0.10398808606331032,0.030944930458501142,0.0,0.0,0.0,0.0,0.0,0.0,3.775056496302316
1.486903607743382,0.16769132666064324,0.10483399235875644,0.0,0.0,0.0,0.0,0.0,0.0,2.964272810241378
1.6336082530600597,-0.048350084942901835,0.1937014769680671,0.0,0.0,0.0,0.0,0.0,0.0,4.004855414154297
1.727419562059739,-0.10732808353513167,0.05211002512986729,0.0,0.0,0.0,0.0,0.0,0.0,3.7685503059395415
1.4032362138313887,-0.12922720024694928,0.13360955644844083,0.0,0.0,0.0,0.0,0.0,0.0,2.237533905549868
1.3177097407974658,0.08812468912068205,-0.002530465953588427,0.0,0.0,0.0,0.0,0.0,0.0,3.657558064376189
1.5158805817172862,0.0014220505150608859,-0.11069401194071722,0.0,0.0,0.0,0.0,0.0,0.0,1.1802267783953702
1.4131963969862666,-0.04053478217674801,0.07436593832664762,0.0,0.0,0.0,0.0,0.0,0.0,2.6802913742985166
1.423355947522087,-0.16299324086293931,0.03481422832291362,0.0,0.0,0.0,0.0,0.0,0.0,3.50423745989901
1.5560495679647455,0.019812401161781096,-0.07585504832168033,0.0,0.0,0.0,0.0,0.0,0.0,0.9840522585651104
1.5754130028121334,0.05149514540292634,0.16507712258073537,0.0,0.0,0.0,0.0,0.0,0.0,4.341093474026865
1.4943511912763903,-0.1462412941906974,0.1305205527099836,0.0,0.0,0.0,0.0,0.0,0.0,4.171231323873476
1.5913781770079958,-0.03404644887364608,-0.06698935281430557,0.0,0.0,0.0,0.0,0.0,0.0,2.6465784401335166
1.4809578037407973,0.01102175554046953,-0.13120900321611947,0.0,0.0,0.0,0.0,0.0,0.0,0.768459318858138
1.6061302767619137,-0.015193825613098259,0.005481797599273017,0.0,0.0,0.0,0.0,0.0,0.0,1.8594875022084958
1.4011027702918957,-0.04844186257379293,0.06915880765270797,0.0,0.0,0.0,0.0,0.0,0.0,3.2139962048110102
1.501966339672846,0.15602633416576628,-0.0534794312567857,0.0,0.0,0.0,0.0,0.0,0.0,3.6407861360906706
1.5671920212671953,-0.045197078600179394,-0.08861065051800958,0.0,0.0,0.0,0.0,0.0,0.0,1.1238762266223405
1.477265016981132,-0.06860058595359546,0.004494802143076001,0.0,0.0,0.0,0.0,0.0,0.0,3.6215098483793393
1.6689781715946044,0.10767961247262309,0.17476268935800654,0.0,0.0,0.0,0.0,0.0,0.0,2.210464559449438
1.7184273281204545,-0.17767302099344057,0.12221900944884503,0.0,0.0,0.0,0.0,0.0,0.0,5.01415369026713
1.2921382382777606,-0.03549922419270472,-0.11719404976793502,0.0,0.0,0.0,0.0,0.0,0.0,4.637282478608492
1.553122027389817,0.07893569913278209,0.019307127119341776,0.0,0.0,0.0,0.0,0.0,0.0,0.8154640464428068
1.5027620844660712,0.13408980276192414,0.12151073884920763,0.0,0.0,0.0,0.0,0.0,0.0,2.667261493803003
1.6141623940376324,0.1559572495473054,-0.07926238885391491,0.0,0.0,0.0,0.0,0.0,0.0,1.1840892020703901
1.634058830802895,0.007723896048366036,-0.022960137208556552,0.0,0.0,0.0,0.0,0.0,0.0,3.33046889149754
1.6146970473190267,0.16454028413968436,-0.05103724859613391,0.0,0.0,0.0,0.0,0.0,0.0,3.9190153124819793
1.563096811303588,0.14651902837199934,-0.08361259827590405,0.0,0.0,0.0,0.0,0.0,0.0,3.670269584957223
1.5664533445729902,0.08505589879572703,-0.007125874351197248,0.0,0.0,0.0,0.0,0.0,0.0,1.7758500220078328
1.5899791300644357,0.15970817229609827,0.026206480616414448,0.0,0.0,0.0,0.0,0.0,0.0,1.7691902509732027
1.5079053167842276,-0.03622910540784364,0.046614199944007055,0.0,0.0,0.0,0.0,0.0,0.0,1.5753874567837127
1.5905653357261502,0.12285979593058134,-0.007324207163996114,0.0,0.0,0.0,0.0,0.0,0.0,0.7362169679704582
1.4142820795700441,-0.06697380114721983,-0.07450734557730258,0.0,0.0,0.0,0.0,0.0,0.0,1.5341388988755593
1.5476584102475233,-0.07696677334035823,0.04809220827379156,0.0,0.0,0.0,0.0,0.0,0.0,2.8673766580444977
1.5326124736502809,-0.061797626648969976,-0.04010338761033439,0.0,0.0,0.0,0.0,0.0,0.0,2.637262595123491
1.2987664322213255,-0.08327621967559125,-0.11742572253943835,0.0,0.0,0.0,0.0,0.0,0.0,2.0128996855968593
1.4745642535466241,0.07343864188808008,-0.2209483357376552,0.0,0.0,0.0,0.0,0.0,0.0,3.5757184945796374
1.5478615114515413,-0.03682704833784367,0.010664944426528315,0.0,0.0,0.0,0.0,0.0,0.0,2.4109915806372104
1.2206764409726167,-0.041144626101690916,0.020754350703144558,0.0,0.0,0.0,0.0,0.0,0.0,3.998632326284832
1.4192030491980594,-0.05883898253766773,0.026106900806005397,0.0,0.0,0.0,0.0,0.0,0.0,2.006972558067821
1.5540048671910962,-0.006219161176900261,0.004170431565604157,0.0,0.0,0.0,0.0,0.0,0.0,3.629434353348421
1.4553188380198694,-0.0047164721604678345,0.10853153416964093,0.0,0.0,0.0,0.0,0.0,0.0,2.867298635230479
1.3717370098977415,-0.017157906882607713,-0.052577793145199926,0.0,0.0,0.0,0.0,0.0,0.0,3.203184797336514
1.5221036292584387,0.004896078780769847,-0.06847537361013768,0.0,0.0,0.0,0.0,0.0,0.0,2.2789143185511596
1.2709294539464233,-0.13418735343285812,0.18351669663087708,0.0,0.0,0.0,0.0,0.0,0.0,3.550031428032493
1.5119319451351343,0.08406211707369472,-0.02444160152422788,0.0,0.0,0.0,0.0,0.0,0.0,0.6981177364623219
1.4656403486238605,-0.09611643319599872,-0.031160150093689533,0.0,0.0,0.0,0.0,0.0,0.0,3.239415539733864
1.4299372075091763,-0.15294892099774146,-0.1965768153325351,0.0,0.0,0.0,0.0,0.0,0.0,2.768054714781505
1.3394585246821802,-0.010492579182858211,0.030529174893478603,0.0,0.0,0.0,0.0,0.0,0.0,3.9423094080525307
1.3490120577884592,-0.037718104475899246,-0.03365874246171994,0.0,0.0,0.0,0.0,0.0,0.0,4.336923044485348
1.3165255971206953,0.012880000561866643,0.05435604937887002,0.0,0.0,0.0,0.0,0.0,0.0,2.876078855353926
1.50894370088093,0.08395041470850989,0.008032768759109944,0.0,0.0,0.0,0.0,0.0,0.0,2.525556629747005
1.3645282052696281,0.0067797578107403325,-0.02452079976991935,0.0,0.0,0.0,0.0,0.0,0.0,0.6758076293298818
1.468387739890397,0.07389188451522169,-0.212791829266856,0.0,0.0,0.0,0.0,0.0,0.0,1.2983972900706642
1.43723415039735,0.08832751604570908,-0.05868742770638903,0.0,0.0,0.0,0.0,0.0,0.0,3.668929275301674
1.5388539646173662,-0.016776356953114285,-0.02761762713707105,0.0,0.0,0.0,0.0,0.0,0.0,1.8923424046355262
1.610171477490084,-0.02275912159243254,-0.03842259133551655,0.0,0.0,0.0,0.0,0.0,0.0,2.156595423411186
1.4417215624030457,-0.06074618908417731,-0.11687900517035339,0.0,0.0,0.0,0.0,0.0,0.0,3.8481885278713643
1.5457018026654321,0.03323036288452573,-0.044579644865197915,0.0,0.0,0.0,0.0,0.0,0.0,2.4949052812593386
1.515858128041831,-0.009031804507310332,-0.24475463148767176,0.0,0.0,0.0,0.0,0.0,0.0,4.7442715155077755
1.422176461164827,-0.024613232771445673,0.0025821044286386497,0.0,0.0,0.0,0.0,0.0,0.0,2.6968547933891056
1.5827321171068929,-0.0419015540998885,0.18148301329796956,0.0,0.0,0.0,0.0,0.0,0.0,2.218823928842502
1.4653112225804967,0.007310933617284696,-0.161979093264607,0.0,0.0,0.0,0.0,0.0,0.0,2.506899640867412
1.3691648370845908,0.16134565865361056,0.08329075515523195,0.0,0.0,0.0,0.0,0.0,0.0,0.4267906180027568
1.600685983033871,0.021762178353678434,-0.04552009820403157,0.0,0.0,0.0,0.0,0.0,0.0,3.4129440579066066
1.478480510781895,0.031718178503977,0.0008430391841015364,0.0,0.0,0.0,0.0,0.0,0.0,5.710578474097091
1.3195004510467085,0.039571862079443604,0.10320628870722426,0.0,0.0,0.0,0.0,0.0,0.0,3.1448800580629452
1.6540825756151323,-0.057377445359169915,0.22397263682160395,0.0,0.0,0.0,0.0,0.0,0.0,3.7821460091940247
1.4854259371284548,-0.06387376250866227,0.072096721181461,0.0,0.0,0.0,0.0,0.0,0.0,3.0383119584481477
1.4435547419897223,0.1334775729372286,0.14593829193341323,0.0,0.0,0.0,0.0,0.0,0.0,4.412706758447174
1.3702484992289532,-0.15903194085124087,-0.15384063027572456,0.0,0.0,0.0,0.0,0.0,0.0,3.7918853273829805
1.523763048075533,0.015458531517777355,-0.14039693970987957,0.0,0.0,0.0,0.0,0.0,0.0,1.7923278283319413
1.3775886984364119,0.08561101314981752,-0.08845105643797635,0.0,0.0,0.0,0.0,0.0,0.0,2.5503703176870656
1.3888371647305031,0.005237953624437565,-0.012860627296461256,0.0,0.0,0.0,0.0,0.0,0.0,3.0979301843202487
1.4780971986324394,0.1826438945184734,0.013945125818140053,0.0,0.0,0.0,0.0,0.0,0.0,4.201006408809223
1.3809678084919286,0.07154223183098117,-0.007002772123370038,0.0,0.0,0.0,0.0,0.0,0.0,4.745525295911993
1.4306193114872163,0.00982854122633379,0.24300376636136597,0.0,0.0,0.0,0.0,0.0,0.0,2.9072434731818664
1.5458403385115689,0.2979661504505186,-0.015243938281520706,0.0,0.0,0.0,0.0,0.0,0.0,1.5366542672642756
1.4814006434679554,0.03964397878323342,0.059926976157796776,0.0,0.0,0.0,0.0,0.0,0.0,1.9445260428426812
1.4851729226414565,0.11157257474428668,0.053416554869985526,0.0,0.0,0.0,0.0,0.0,0.0,3.7024008160607056
1.5742667083611648,-0.015276452650294437,0.04944435481640312,0.0,0.0,0.0,0.0,0.0,0.0,3.101859106204713
1.4749680779362042,-0.02610698367235328,0.07798394577214694,0.0,0.0,0.0,0.0,0.0,0.0,2.65710224396222
1.4192140921863525,0.13499357138882406,-0.09078164053012584,0.0,0.0,0.0,0.0,0.0,0.0,2.2299117427025146
1.392487102030372,-0.017131601972349236,-0.02173918228552249,0.0,0.0,0.0,0.0,0.0,0.0,2.8426401013516376
1.4810849749890647,0.010470884829885091,-0.06316825818698026,0.0,0.0,0.0,0.0,0.0,0.0,3.6899281764564495
1.5851192079686574,-0.053484207955521015,0.1420335870232212,0.0,0.0,0.0,0.0,0.0,0.0,3.744474393391793
1.364449482044635,0.07306900550524452,-0.06570842383444167,0.0,0.0,0.0,0.0,0.0,0.0,1.6703888569478111
1.664608051199215,-0.14323716825472282,0.09337433395495703,0.0,0.0,0.0,0.0,0.0,0.0,3.018303121906663
1.5535013831407634,0.0026898173890312817,-0.06841405517658293,0.0,0.0,0.0,0.0,0.0,0.0,3.1446856271433634
1.5009063682931765,0.031347941385451585,0.07007374399996717,0.0,0.0,0.0,0.0,0.0,0.0,4.069803242274126
1.3596796894948138,-0.06792976589009082,-0.012984432901150943,0.0,0.0,0.0,0.0,0.0,0.0,2.262826525135279
1.5984821036039474,0.0742860047035687,0.04003995871156874,0.0,0.0,0.0,0.0,0.0,0.0,3.677464742117707
1.39968743375013,0.15773163323925699,0.028142685299910403,0.0,0.0,0.0,0.0,0.0,0.0,1.9672083027534977
1.4882768907066197,0.05574011045183679,-0.1306585511422924,0.0,0.0,0.0,0.0,0.0,0.0,3.6022383286536934
1.4541079307185651,0.17705284201376972,0.04308575138117149,0.0,0.0,0.0,0.0,0.0,0.0,1.9133789997979773
1.378396840169225,-0.08579848517014345,-0.19742729682540264,0.0,0.0,0.0,0.0,0.0,0.0,4.269888542304137
1.5781028062041307,0.08382383506022062,-0.0183537461187815,0.0,0.0,0.0,0.0,0.0,0.0,5.123342643604529
1.6108898741006472,0.013172375484471489,-0.1458149431968306,0.0,0.0,0.0,0.0,0.0,0.0,2.1769517785145487
1.4301042681930733,-0.055557248760230674,0.029577766150780962,0.0,0.0,0.0,0.0,0.0,0.0,2.6573125400959015
1.651161253475692,-0.11242647766211232,-0.10371756050504205,0.0,0.0,0.0,0.0,0.0,0.0,2.1671963921680084
1.6915564938487297,0.11233884023640875,-0.11751971727199194,0.0,0.0,0.0,0.0,0.0,0.0,5.189584546615292
1.457476018919298,-0.155230696305775,0.2211143688088221,0.0,0.0,0.0,0.0,0.0,0.0,4.061761809615724
1.582036099508178,-0.026795085318369855,-0.05230637199100008,0.0,0.0,0.0,0.0,0.0,0.0,4.339944961381519
1.4601587094583908,-0.07037070801223996,0.034022456944197324,0.0,0.0,0.0,0.0,0.0,0.0,4.475907257319419
1.6285065395728764,-0.00204746429971021,-0.07439082120718453,0.0,0.0,0.0,0.0,0.0,0.0,3.433806329794008
1.6188347536383556,0.07574932936471407,-0.05315989035623123,0.0,0.0,0.0,0.0,0.0,0.0,4.746240485262618
1.4846266536352102,0.04772206775573975,-0.002966750772200593,0.0,0.0,0.0,0.0,0.0,0.0,0.765168198984339
1.4400654517329172,-0.05137705567315623,0.03616143954964027,0.0,0.0,0.0,0.0,0.0,0.0,1.1244976835114724
1.4329633061850964,0.09873978982467597,0.08465674832034703,0.0,0.0,0.0,0.0,0.0,0.0,3.408575221348829
1.4637165008518886,-0.046854518968629494,0.0033750922107258978,0.0,0.0,0.0,0.0,0.0,0.0,4.8817753021763926
1.469602685357591,-0.08753746813916906,-0.1343507090339174,0.0,0.0,0.0,0.0,0.0,0.0,3.7649058720084287
1.4460846406391274,-0.14059710957161006,0.19034618339973583,0.0,0.0,0.0,0.0,0.0,0.0,1.4696616047486515
